Timestamp(us), ax, ay, az, gx, gy, gz
23826904,-46,48,2034,-10,-8,-3
23846893,-41,46,2037,-11,-8,-2
23866882,-48,47,2037,-11,-7,-3
23886871,-48,47,2037,-11,-7,-3
23906860,-48,44,2036,-11,-7,-3
23926849,-48,46,2037,-11,-7,-2
23946838,-49,48,2036,-11,-7,-2
23966827,-49,49,2034,-11,-8,-3
23986816,-48,45,2034,-9,-7,-3
24006805,-47,46,2038,-12,-7,-3
24026794,-45,47,2037,-11,-7,-2
24046783,-45,48,2035,-11,-9,-3
24066772,-47,47,2037,-10,-8,-3
24086761,-44,45,2039,-11,-7,-3
24106750,-46,48,2035,-11,-8,-2
24126739,-50,48,2033,-10,-8,-2
24146728,-50,45,2034,-11,-7,-4
24166717,-48,47,2035,-10,-8,-3
24186706,-48,51,2035,-9,-7,-2
24206695,-47,46,2036,-11,-7,-3
24226684,-48,43,2035,-10,-7,-2
24246673,-47,46,2038,-11,-7,-3
24266662,-47,47,2035,-11,-7,-3
24286651,-48,46,2039,-11,-8,-3
24306640,-46,44,2036,-12,-7,-3
24326629,-45,48,2030,-11,-8,-2
24346618,-45,46,2033,-10,-8,-3
24366607,-48,49,2032,-11,-7,-2
24386596,-47,47,2033,-11,-8,-2
24406585,-46,47,2031,-11,-7,-3
24426574,-46,47,2031,-10,-6,-3
24446563,-48,49,2036,-10,-6,-3
24466552,-47,48,2037,-10,-7,-3
24486541,-44,47,2034,-11,-7,-3
24506530,-46,49,2032,-11,-8,-4
24526519,-47,51,2034,-11,-8,-3
24546508,-45,47,2037,-11,-7,-2
24566497,-50,45,2037,-10,-7,-2
24586486,-47,47,2037,-10,-8,-3
24606475,-47,45,2033,-11,-8,-3
24626464,-48,45,2036,-10,-7,-2
24646453,-49,45,2035,-10,-7,-2
24666442,-47,47,2034,-11,-8,-3
24686431,-46,45,2035,-11,-7,-3
24706420,-50,48,2036,-12,-6,-3
24726409,-47,48,2035,-12,-7,-2
24746398,-48,48,2038,-10,-7,-2
24766387,-49,46,2038,-11,-8,-2
24786376,-46,48,2033,-11,-8,-2
24806365,-48,48,2037,-10,-7,-3
24826354,-44,46,2036,-10,-8,-2
24846343,-46,47,2036,-10,-7,-2
24866333,-47,44,2036,-11,-7,-3
24886322,-45,43,2037,-10,-8,-3
24906311,-45,49,2037,-10,-8,-3
24926300,-49,49,2040,-10,-8,-2
24946289,-47,46,2036,-10,-8,-2
24966278,-48,42,2035,-11,-9,-2
24986267,-46,47,2037,-11,-7,-3
25006256,-48,49,2032,-10,-7,-3
25026245,-46,45,2034,-10,-8,-3
25046234,-47,47,2036,-10,-7,-2
25066223,-47,47,2035,-11,-8,-2
25086212,-47,47,2038,-10,-8,-3
25106201,-46,46,2036,-10,-9,-2
25126190,-46,47,2036,-12,-8,-2
25146179,-48,45,2035,-10,-8,-3
25166168,-48,47,2032,-10,-8,-3
25186157,-47,46,2036,-10,-7,-4
25206146,-47,47,2036,-11,-6,-2
25226135,-46,48,2034,-11,-8,-3
25246124,-46,47,2037,-10,-8,-2
25266113,-46,44,2035,-10,-7,-3
25286102,-45,44,2038,-11,-7,-2
25306091,-47,48,2040,-10,-6,-3
25326080,-46,48,2037,-11,-8,-2
25346069,-45,48,2032,-11,-8,-2
25366058,-48,48,2032,-11,-7,-3
25386047,-48,45,2036,-10,-8,-2
25406036,-46,47,2039,-12,-7,-2
25426025,-45,45,2039,-11,-8,-3
25446014,-49,43,2034,-10,-7,-3
25466003,-49,47,2032,-10,-7,-3
25485992,-47,47,2036,-10,-7,-2
25505981,-47,46,2034,-12,-8,-2
25525970,-48,45,2032,-11,-8,-2
25545959,-46,47,2039,-11,-7,-4
25565948,-47,50,2035,-11,-7,-3
25585937,-47,47,2033,-10,-7,-3
25605926,-46,46,2035,-10,-8,-3
25625915,-45,50,2036,-11,-8,-3
25645904,-44,47,2035,-10,-6,-3
25665893,-48,47,2036,-10,-6,-2
25685882,-47,47,2034,-10,-8,-2
25705871,-48,50,2032,-11,-8,-3
25725860,-47,49,2034,-10,-8,-3
25745849,-46,49,2038,-11,-8,-3
25765838,-47,47,2037,-11,-7,-3
25785827,-49,45,2037,-11,-7,-2
25805816,-47,47,2035,-10,-8,-3
25825805,-49,45,2034,-10,-8,-3
25845794,-48,46,2037,-10,-8,-3
25865783,-46,49,2039,-10,-7,-3
25885772,-45,48,2036,-11,-7,-3
25905761,-49,48,2037,-10,-7,-2
25925750,-47,48,2033,-10,-7,-2
25945739,-49,46,2032,-10,-9,-3
25965728,-46,43,2036,-12,-8,-3
25985717,-45,46,2036,-10,-7,-3
26005706,-46,48,2034,-10,-7,-3
26025695,-45,48,2034,-11,-8,-1
26045684,-47,44,2034,-10,-7,-2
26065673,-47,46,2037,-11,-7,-3
26085662,-48,44,2040,-12,-8,-2
26105651,-46,50,2036,-11,-8,-2
26125640,-47,46,2035,-12,-7,-3
26145629,-47,43,2035,-11,-8,-3
26165618,-46,45,2039,-10,-8,-3
26185607,-46,47,2040,-10,-8,-3
26205596,-47,46,2033,-11,-8,-2
26225585,-46,47,2036,-10,-8,-2
26245574,-48,50,2036,-11,-8,-3
26265563,-46,51,2036,-11,-7,-3
26285552,-49,45,2038,-11,-7,-3
26305541,-45,44,2036,-11,-8,-3
26325531,-46,47,2037,-10,-8,-3
26345520,-43,47,2035,-11,-7,-3
26365509,-47,48,2034,-11,-7,-3
26385498,-48,49,2034,-10,-7,-2
26405487,-47,44,2037,-11,-7,-2
26425476,-46,46,2038,-9,-7,-2
26445465,-45,44,2037,-11,-8,-3
26465454,-42,42,2035,-11,-9,-3
26485443,-49,47,2035,-11,-7,-2
26505432,-46,49,2038,-11,-6,-2
26525421,-46,44,2038,-11,-8,-2
26545410,-45,45,2034,-11,-8,-3
26565399,-47,49,2034,-12,-8,-3
26585388,-48,46,2036,-11,-8,-2
26605377,-47,46,2037,-10,-7,-3
26625366,-47,46,2035,-9,-8,-3
26645355,-48,47,2037,-11,-8,-3
26665344,-47,48,2038,-10,-8,-2
26685333,-47,46,2032,-10,-7,-3
26705322,-48,43,2033,-10,-6,-2
26725311,-45,46,2034,-11,-7,-3
26745300,-49,47,2036,-11,-7,-3
26765289,-47,48,2037,-11,-7,-3
26785278,-45,46,2038,-10,-7,-2
26805267,-47,45,2033,-11,-8,-3
26825256,-46,48,2035,-10,-7,-3
26845245,-46,44,2039,-9,-7,-2
26865234,-48,44,2036,-11,-6,-3
26885223,-47,47,2036,-11,-8,-3
26905212,-47,48,2040,-10,-7,-3
26925201,-47,45,2037,-11,-7,-3
26945190,-48,46,2034,-11,-7,-3
26965179,-48,47,2038,-10,-9,-3
26985168,-48,47,2032,-10,-8,-2
27005157,-50,48,2036,-11,-8,-3
27025146,-47,45,2037,-11,-7,-4
27045135,-48,49,2031,-11,-7,-2
27065124,-47,46,2031,-10,-8,-3
27085113,-47,48,2037,-11,-8,-3
27105102,-49,45,2036,-12,-8,-3
27125091,-47,47,2031,-10,-7,-3
27145080,-45,50,2036,-11,-7,-3
27165069,-48,48,2036,-11,-7,-2
27185058,-46,49,2035,-10,-7,-2
27205047,-49,47,2032,-10,-8,-3
27225036,-46,44,2034,-11,-8,-2
27245025,-47,47,2035,-11,-8,-3
27265014,-48,50,2036,-10,-7,-2
27285003,-46,48,2040,-11,-7,-3
27304992,-48,45,2034,-11,-8,-2
27324981,-45,46,2038,-11,-8,-3
27344970,-45,47,2040,-11,-8,-3
27364959,-48,46,2037,-11,-9,-3
27384948,-48,46,2034,-10,-8,-3
27404937,-47,45,2034,-11,-7,-3
27424926,-44,48,2033,-11,-7,-2
27444915,-47,48,2038,-11,-8,-2
27464904,-48,46,2033,-11,-7,-3
27484893,-46,46,2035,-11,-7,-2
27504882,-45,48,2035,-10,-7,-3
27524871,-46,45,2033,-11,-8,-3
27544860,-47,47,2034,-11,-7,-3
27564849,-45,46,2037,-10,-8,-3
27584838,-47,46,2034,-12,-9,-3
27604827,-46,47,2035,-10,-8,-3
27624816,-47,46,2033,-10,-7,-3
27644805,-47,44,2036,-11,-8,-3
27664794,-48,46,2033,-11,-8,-3
27684783,-43,46,2033,-10,-8,-3
27704772,-45,46,2038,-10,-8,-3
27724761,-48,47,2040,-10,-7,-3
27744750,-45,50,2035,-11,-7,-3
27764739,-50,49,2037,-11,-7,-2
27784729,-47,49,2038,-11,-7,-2
27804718,-48,47,2038,-11,-7,-3
27824707,-48,48,2037,-11,-7,-3
27844696,-46,46,2035,-11,-7,-2
27864685,-47,47,2036,-11,-8,-2
27884674,-45,46,2038,-11,-7,-3
27904663,-48,45,2037,-10,-8,-2
27924652,-45,46,2036,-10,-8,-2
27944641,-47,47,2039,-11,-7,-3
27964630,-46,46,2033,-10,-7,-3
27984619,-45,46,2034,-10,-7,-3
28004608,-48,46,2039,-10,-7,-2
28024597,-50,46,2036,-11,-7,-2
28044586,-49,49,2032,-11,-7,-3
28064575,-46,48,2035,-10,-7,-3
28084564,-46,45,2035,-10,-7,-3
28104553,-45,46,2035,-12,-8,-3
28124542,-47,44,2037,-12,-7,-3
28144531,-44,46,2035,-11,-8,-2
28164520,-49,48,2037,-11,-8,-2
28184509,-48,46,2038,-10,-7,-4
28204498,-46,47,2036,-9,-7,-3
28224487,-47,45,2036,-11,-7,-2
28244476,-46,43,2038,-11,-7,-3
28264465,-47,45,2036,-10,-7,-2
28284454,-47,43,2035,-10,-7,-3
28304443,-46,44,2034,-10,-8,-4
28324432,-47,47,2032,-10,-7,-3
28344421,-47,50,2032,-10,-7,-2
28364410,-48,51,2034,-11,-7,-2
28384399,-49,49,2035,-10,-7,-2
28404388,-44,48,2035,-9,-7,-2
28424377,-45,44,2038,-11,-7,-3
28444366,-45,46,2034,-11,-7,-3
28464355,-47,46,2034,-10,-7,-2
28484344,-49,47,2035,-10,-7,-2
28504333,-47,46,2035,-11,-8,-2
28524322,-45,46,2034,-10,-7,-2
28544311,-45,47,2037,-11,-7,-2
28564300,-47,47,2036,-11,-7,-2
28584289,-45,47,2033,-10,-7,-2
28604278,-47,49,2038,-11,-8,-2
28624267,-47,48,2034,-11,-8,-3
28644256,-48,51,2036,-10,-8,-3
28664245,-46,46,2034,-11,-8,-2
28684234,-47,45,2035,-11,-7,-3
28704223,-48,46,2033,-10,-8,-3
28724212,-49,44,2033,-10,-8,-3
28744201,-46,50,2038,-11,-7,-3
28764190,-46,46,2040,-11,-8,-2
28784179,-47,47,2034,-11,-9,-2
28804168,-46,46,2033,-11,-8,-3
28824157,-47,45,2034,-11,-7,-3
28844146,-47,44,2032,-11,-8,-2
28864135,-49,46,2036,-10,-8,-3
28884124,-50,47,2035,-11,-8,-3
28904113,-47,48,2035,-10,-8,-3
28924102,-46,46,2040,-10,-7,-2
28944091,-45,48,2037,-10,-8,-3
28964080,-46,48,2032,-11,-7,-3
28984069,-46,47,2036,-10,-8,-2
29004058,-47,49,2036,-10,-8,-3
29024047,-46,48,2032,-10,-8,-3
29044036,-47,43,2032,-10,-7,-2
29064025,-46,47,2034,-10,-6,-3
29084014,-44,49,2038,-11,-6,-2
29104003,-47,42,2036,-11,-7,-2
29123992,-47,47,2037,-10,-7,-2
29143981,-45,46,2033,-11,-8,-3
29163970,-45,46,2034,-10,-8,-4
29183959,-44,45,2036,-10,-7,-4
29203948,-46,43,2034,-11,-6,-2
29223937,-48,46,2037,-11,-7,-3
29243927,-44,49,2034,-11,-9,-3
29263916,-44,47,2036,-11,-8,-3
29283905,-47,44,2036,-10,-7,-3
29303894,-48,49,2033,-11,-7,-2
29323883,-46,47,2033,-10,-8,-3
29343872,-48,46,2037,-12,-8,-2
29363861,-47,45,2036,-11,-7,-2
29383850,-47,46,2034,-10,-7,-3
29403839,-45,47,2036,-10,-8,-2
29423828,-46,44,2034,-12,-8,-2
29443817,-46,46,2039,-12,-7,-3
29463806,-47,43,2037,-11,-9,-2
29483795,-47,48,2038,-9,-9,-2
29503784,-48,46,2038,-11,-8,-3
29523773,-49,45,2038,-11,-7,-2
29543762,-47,47,2037,-11,-8,-3
29563751,-45,46,2035,-10,-7,-2
29583740,-48,46,2037,-10,-7,-2
29603729,-46,44,2037,-11,-7,-2
29623718,-49,46,2036,-11,-8,-2
29643707,-48,47,2038,-10,-8,-3
29663696,-43,47,2034,-11,-8,-3
29683685,-44,47,2036,-10,-7,-3
29703674,-48,49,2037,-10,-8,-3
29723663,-48,47,2039,-11,-9,-3
29743652,-47,46,2034,-12,-8,-3
29763641,-47,46,2036,-11,-7,-2
29783630,-48,49,2036,-10,-7,-3
29803619,-46,46,2035,-10,-8,-3
29823608,-48,46,2034,-11,-8,-3
29843597,-48,45,2035,-11,-8,-3
29863586,-47,45,2035,-11,-8,-3
29883575,-46,46,2037,-11,-8,-3
29903564,-46,44,2041,-11,-8,-3
29923553,-47,50,2037,-12,-7,-3
29943542,-46,47,2039,-12,-7,-3
29963531,-50,46,2035,-12,-7,-2
29983520,-47,45,2034,-11,-7,-2
30003509,-44,44,2039,-9,-8,-2
30023498,-46,45,2038,-10,-7,-3
30043487,-47,45,2034,-10,-8,-3
30063476,-44,47,2035,-11,-8,-2
30083465,-49,43,2030,-11,-8,-2
30103454,-44,47,2032,-10,-7,-3
30123443,-44,46,2034,-11,-7,-3
30143432,-47,46,2039,-11,-7,-2
30163421,-47,49,2038,-11,-7,-3
30183410,-49,47,2032,-11,-7,-4
30203399,-49,50,2033,-10,-7,-2
30223388,-45,47,2037,-10,-7,-2
30243377,-44,45,2035,-10,-7,-2
30263366,-48,45,2032,-11,-7,-3
30283355,-47,44,2033,-11,-8,-3
30303344,-47,45,2035,-11,-8,-3
30323333,-45,46,2036,-12,-7,-4
30343322,-48,43,2034,-10,-7,-4
30363311,-49,43,2033,-10,-8,-2
30383300,-48,44,2035,-10,-7,-1
30403289,-44,46,2037,-11,-7,-2
30423278,-47,45,2034,-11,-7,-2
30443267,-47,43,2038,-10,-8,-2
30463256,-48,47,2034,-10,-8,-2
30483245,-49,47,2036,-10,-7,-2
30503234,-46,47,2035,-10,-7,-2
30523223,-46,44,2033,-11,-7,-2
30543212,-47,49,2035,-12,-9,-3
30563201,-45,44,2035,-12,-8,-2
30583190,-43,47,2034,-11,-8,-2
30603179,-45,46,2033,-11,-7,-3
30623168,-45,45,2035,-11,-8,-3
30643157,-48,45,2035,-11,-7,-2
30663146,-46,46,2034,-10,-7,-3
30683135,-45,50,2036,-10,-7,-3
30703125,-47,46,2037,-10,-8,-2
30723114,-47,45,2035,-11,-8,-3
30743103,-46,45,2033,-10,-8,-2
30763092,-45,48,2033,-10,-8,-2
30783081,-47,46,2040,-11,-7,-3
30803070,-48,45,2035,-10,-7,-3
30823059,-44,47,2028,-11,-8,-2
30843048,-44,46,2033,-10,-6,-3
30863037,-48,47,2038,-11,-7,-3
30883026,-46,49,2034,-11,-8,-3
30903015,-48,50,2036,-11,-7,-3
30923004,-46,47,2037,-12,-8,-3
30942993,-48,48,2037,-9,-9,-2
30962982,-49,50,2034,-9,-7,-2
30982971,-41,45,2032,-11,-7,-3
31002960,-43,46,2036,-12,-8,-3
31022949,-47,49,2038,-11,-8,-3
31042938,-45,42,2035,-11,-7,-2
31062927,-46,42,2029,-11,-7,-2
31082916,-45,47,2031,-11,-7,-3
31102905,-47,49,2038,-11,-7,-3
31122894,-45,43,2032,-11,-7,-3
31142883,-48,47,2032,-11,-7,-2
31162872,-47,47,2035,-12,-7,-3
31182861,-46,45,2032,-11,-7,-2
31202850,-46,46,2031,-12,-7,-2
31222839,-44,47,2040,-11,-7,-2
31242828,-45,45,2038,-10,-7,-3
31262817,-46,46,2037,-10,-8,-3
31282806,-48,49,2040,-11,-9,-3
31302795,-45,46,2036,-12,-7,-2
31322784,-47,46,2036,-11,-7,-2
31342773,-48,48,2030,-10,-8,-2
31362762,-47,47,2034,-10,-8,-3
31382751,-51,45,2038,-10,-7,-3
31402740,-49,46,2034,-11,-7,-2
31422729,-45,44,2037,-9,-7,-2
31442718,-48,47,2036,-11,-6,-3
31462707,-48,51,2036,-12,-8,-2
31482696,-49,51,2037,-10,-8,-3
31502685,-47,45,2036,-11,-8,-3
31522674,-47,46,2034,-11,-7,-3
31542663,-47,42,2036,-11,-7,-2
31562652,-46,45,2037,-12,-7,-2
31582641,-46,46,2037,-10,-8,-2
31602630,-47,48,2037,-11,-8,-2
31622619,-46,47,2037,-12,-7,-2
31642608,-47,49,2037,-11,-7,-2
31662597,-47,45,2033,-10,-8,-3
31682586,-46,46,2037,-11,-7,-3
31702575,-48,46,2037,-11,-7,-2
31722564,-46,47,2032,-10,-6,-2
31742553,-45,44,2035,-9,-6,-3
31762542,-47,45,2038,-11,-7,-2
31782531,-49,44,2038,-13,-8,-2
31802520,-48,45,2035,-12,-8,-3
31822509,-48,46,2037,-12,-7,-3
31842498,-45,46,2037,-11,-7,-2
31862487,-45,45,2037,-11,-7,-3
31882476,-46,47,2033,-11,-7,-2
31902465,-47,45,2035,-11,-7,-2
31922454,-46,45,2033,-11,-8,-2
31942443,-44,48,2035,-11,-7,-3
31962432,-49,49,2037,-11,-8,-3
31982421,-47,48,2037,-12,-8,-2
32002410,-44,48,2034,-9,-8,-2
32022399,-43,45,2035,-10,-8,-2
32042388,-47,45,2035,-10,-8,-3
32062377,-46,43,2036,-10,-7,-3
32082366,-48,48,2040,-12,-7,-3
32102355,-47,48,2037,-11,-7,-4
32122344,-49,46,2036,-11,-7,-3
32142333,-49,46,2034,-10,-8,-2
32162322,-49,49,2037,-10,-8,-2
32182312,-50,45,2035,-10,-7,-2
32202301,-46,47,2037,-10,-7,-2
32222290,-48,47,2035,-10,-7,-2
32242279,-48,47,2034,-11,-8,-3
32262268,-44,45,2035,-11,-8,-2
32282257,-45,49,2033,-11,-6,-2
32302246,-43,47,2033,-11,-7,-3
32322235,-46,45,2035,-11,-8,-3
32342224,-45,44,2035,-11,-7,-2
32362213,-47,48,2035,-10,-7,-2
32382202,-47,46,2037,-11,-8,-3
32402191,-48,46,2038,-11,-7,-3
32422180,-47,47,2035,-11,-7,-2
32442169,-48,46,2038,-11,-7,-3
32462158,-46,45,2036,-10,-8,-3
32482147,-43,48,2033,-11,-6,-2
32502136,-46,49,2033,-11,-7,-2
32522125,-45,45,2036,-11,-8,-2
32542114,-45,43,2037,-10,-8,-2
32562103,-46,48,2036,-11,-8,-3
32582092,-46,48,2036,-10,-7,-2
32602081,-47,48,2035,-10,-7,-2
32622070,-44,47,2038,-10,-7,-3
32642059,-46,44,2036,-11,-7,-3
32662048,-48,47,2035,-10,-8,-3
32682037,-46,47,2034,-11,-7,-3
32702026,-49,47,2038,-10,-7,-3
32722015,-48,47,2037,-11,-7,-3
32742004,-46,49,2038,-12,-8,-3
32761993,-45,48,2036,-11,-7,-3
32781982,-47,42,2032,-11,-7,-2
32801971,-47,44,2036,-11,-8,-2
32821960,-46,44,2036,-11,-8,-3
32841949,-48,43,2036,-10,-8,-3
32861938,-47,44,2038,-10,-7,-2
32881927,-46,43,2038,-10,-6,-2
32901916,-48,44,2037,-10,-7,-3
32921905,-49,48,2035,-11,-7,-3
32941894,-48,45,2034,-12,-7,-2
32961883,-46,46,2035,-11,-7,-3
32981872,-47,45,2032,-11,-7,-3
33001861,-48,44,2036,-11,-8,-2
33021850,-162,-3,2037,-7,4,-74
33041839,-106,58,2044,5,-44,-635
33061828,192,74,2033,-21,-65,-438
33081817,-37,88,2028,27,46,45
33101806,183,344,2020,48,21,187
33121795,-44,35,2044,-188,31,179
33141784,169,254,2045,25,-20,-552
33161773,158,326,2029,668,-94,-2381
33181762,-321,-291,2034,-1376,-268,-3467
33201751,-246,-313,2058,248,48,-2810
33221740,283,-750,1996,-530,-240,-132
33241729,-641,-124,2061,164,98,1849
33261718,-13,95,2137,66,-4,218
33281707,94,8,1990,-45,-67,923
33301696,-108,-35,2037,-670,-80,869
33321685,-18,291,2056,-630,-173,540
33341674,19,154,2010,-514,-59,701
33361663,30,20,2069,-443,-4,654
33381652,100,-205,2050,-430,-35,856
33401641,-28,114,2116,-317,-141,890
33421630,130,-203,2064,128,-430,1396
33441619,187,-560,1976,494,-196,1388
33461608,426,-223,2125,990,531,1454
33481597,265,-146,2239,1834,777,2621
33501586,-468,175,2450,2451,1629,4017
33521575,-636,605,2321,2987,2706,4928
33541564,-695,1168,1954,3782,3581,5249
33561553,-446,1257,1776,4056,4093,5802
33581542,-686,991,2248,3724,4258,5700
33601531,-867,844,2238,3089,4169,5156
33621520,-739,1585,1332,2544,4379,4416
33641510,-850,1898,1100,2658,4634,4094
33661499,-366,1247,1684,2898,4223,3847
33681488,-705,1182,1474,2222,3112,3540
33701477,-739,1607,1000,1744,2498,2727
33721466,-789,1911,861,1790,2067,2073
33741455,-976,2052,761,1957,2111,2386
33761444,-696,1634,902,2127,2352,2796
33781433,-639,1259,1044,1745,1908,2150
33801422,-742,1893,571,1096,963,796
33821411,-883,2420,341,1083,741,553
33841400,-800,2351,265,1370,908,1226
33861389,-824,2015,268,1321,823,1683
33881378,-292,1280,362,1306,495,1268
33901367,-368,1510,258,-243,-735,-811
33921356,-617,2037,-138,-1207,-1910,-1809
33941345,-184,1677,-66,-829,-1795,-1710
33961334,-1,1381,349,-545,-1536,-1430
33981323,-380,1353,762,-155,-1275,-543
34001312,-180,1416,925,788,-920,967
34021301,-101,1439,727,608,-454,1219
34041290,-420,2034,889,492,435,600
34061279,48,2209,731,1303,835,1150
34081268,171,2336,663,2160,951,1470
34101257,-41,2393,823,2656,1417,1603
34121246,-140,2290,1065,3077,1657,1616
34141235,31,2130,768,4339,2089,3012
34161224,241,1816,497,3370,1399,2557
34181213,648,1925,-27,1164,1399,3615
34201202,1832,1743,-112,605,515,2608
34221191,763,1583,-40,1644,82,-167
34241180,639,1319,334,1607,66,-95
34261169,479,1318,365,931,-116,-198
34281158,200,1528,172,-61,-336,-772
34301147,294,1536,39,-1478,-1142,330
34321136,1018,1377,-177,-2616,-2030,1465
34341125,2153,1155,-659,-2726,-1910,-713
34361114,150,1675,200,-3648,-882,-1361
34381103,435,1070,659,-3888,-1679,395
34401092,153,1230,720,-5953,-2733,-79
34421081,-171,1680,658,-8101,-2935,-969
34441070,-219,2525,276,-8419,-3048,-1857
34461059,-191,2844,365,-7710,-2913,-2357
34481048,-746,2832,722,-7342,-3537,-3555
34501037,-1227,2249,1767,-7242,-3872,-5141
34521026,-1119,1522,2561,-6418,-2722,-5533
34541015,-471,1296,2090,-5002,-1242,-5039
34561004,122,894,1808,-4004,-702,-4612
34580993,86,605,2144,-2860,-389,-3687
34600982,-80,221,2639,-2039,-238,-2858
34620971,35,165,2636,-1784,-416,-2823
34640960,132,447,2410,-1352,-173,-2784
34660949,371,553,2303,-915,276,-2171
34680938,430,541,1925,-1090,442,-1651
34700927,559,107,1710,-713,303,-1522
34720916,-204,292,2454,-619,-276,-1942
34740905,-118,274,2342,-1039,499,-1917
34760894,280,653,1739,-957,201,-1708
34780883,248,500,1577,-783,-293,-1415
34800872,-17,87,2125,-512,-1938,-1457
34820861,-307,173,2304,-523,-2553,-1432
34840850,-85,186,2145,-303,-1233,-1410
34860839,170,240,1908,169,-537,-1379
34880828,260,94,2006,772,334,-1241
34900817,39,-147,2463,142,69,-1027
34920806,122,-298,2007,-995,-1118,-1229
34940795,218,335,1854,-1263,-113,-985
34960784,453,287,1913,-986,-22,220
34980773,85,323,2146,-449,1007,871
35000762,149,276,2041,407,1104,1321
35020751,-56,17,1834,1153,1823,893
35040740,-140,214,2303,-115,1468,94
35060729,8,47,1833,-1185,-247,-350
35080718,3,97,2414,-829,-401,-325
35100708,-304,178,2017,417,-1,767
35120697,-258,-48,1995,-132,19,700
35140686,-73,35,2061,-122,-72,77
35160675,-41,34,2034,-69,-93,-51
35180664,-42,29,2032,-36,-55,3
35200653,-39,41,2033,-8,-2,0
35220642,-51,42,2037,16,42,-4
35240631,-75,56,2035,23,54,-3
35260620,-84,64,2040,-8,-4,-3
35280609,-53,47,2035,-38,-56,-2
35300598,-45,38,2031,-24,-35,-2
35320587,-49,47,2032,-1,7,-2
35340576,-66,57,2039,9,28,-3
35360565,-71,59,2039,-4,2,-3
35380554,-57,47,2034,-25,-33,-2
35400543,-53,42,2036,-20,-23,-3
35420532,-58,45,2038,-4,6,-3
35440521,-65,53,2037,-4,8,-3
35460510,-63,46,2039,-14,-13,-3
35480499,-53,45,2035,-17,-20,-2
35500488,-56,47,2031,-9,-5,-3
35520477,-63,50,2035,-6,2,-2
35540466,-62,51,2037,-12,-8,-3
35560455,-57,46,2035,-16,-13,-3
35580444,-59,44,2032,-11,-8,-3
35600433,-58,48,2038,-9,-3,-2
35620422,-59,53,2038,-10,-6,-3
35640411,-56,50,2034,-13,-10,-2
35660400,-57,44,2035,-11,-8,-3
35680389,-55,49,2034,-10,-5,-3
35700378,-62,47,2034,-10,-8,-3
35720367,-59,48,2036,-11,-11,-1
35740356,-58,49,2036,-10,-6,-2
35760345,-58,45,2033,-9,-6,-2
35780334,-59,49,2038,-11,-8,-2
35800323,-58,48,2040,-10,-8,-3
35820312,-59,51,2034,-10,-7,-3
35840301,-59,49,2038,-10,-8,-2
35860290,-60,48,2037,-10,-7,-2
35880279,-57,49,2036,-11,-8,-4
35900268,-59,48,2039,-10,-8,-3
35920257,-59,47,2038,-10,-7,-3
35940246,-58,48,2041,-11,-8,-3
35960235,-55,51,2035,-10,-7,-2
35980224,-60,48,2036,-11,-6,-3
36000213,-58,51,2035,-11,-9,-3
36020202,-58,49,2037,-10,-7,-3
36040191,-59,49,2038,-9,-6,-2
36060180,-59,49,2032,-10,-7,-3
36080169,-56,49,2034,-11,-8,-3
36100158,-58,49,2040,-10,-6,-2
36120147,-58,49,2039,-11,-8,-2
36140136,-58,48,2036,-11,-8,-2
36160125,-59,50,2033,-10,-7,-3
36180114,-57,57,2037,-10,-7,-3
36200103,-60,46,2036,-9,-6,-2
36220092,-60,49,2036,-8,-6,-3
36240081,-57,47,2039,-13,-10,-3
36260070,-59,45,2042,-12,-8,-3
36280059,-60,46,2033,-9,-5,-2
36300048,-56,48,2035,-10,-7,-3
36320037,-57,46,2033,-11,-8,-2
36340026,-58,48,2034,-9,-6,-3
36360015,-57,54,2030,-11,-9,-3
36380004,-59,49,2031,-11,-10,-3
36399993,-61,47,2033,-9,-7,-2
36419982,-59,53,2035,-10,-7,-2
36439971,-59,47,2037,-10,-10,-2
36459960,-58,45,2040,-11,-9,-2
36479949,-58,49,2039,-11,-6,-2
36499938,-58,53,2036,-11,-6,-2
36519927,-60,49,2032,-9,-6,-3
36539916,-60,49,2040,-10,-7,-2
36559906,-57,49,2038,-12,-8,-2
36579895,-59,50,2035,-12,-9,-3
36599884,-58,48,2033,-12,-8,-3
36619873,-62,49,2034,-10,-7,-3
36639862,-59,48,2038,-11,-8,-2
36659851,-58,48,2035,-12,-9,-3
36679840,-57,49,2034,-9,-7,-3
36699829,-56,51,2030,-10,-7,-3
36719818,-59,47,2039,-11,-9,-2
36739807,-60,49,2036,-11,-7,-2
36759796,-61,46,2034,-11,-7,-2
36779785,-60,47,2035,-11,-8,-4
36799774,-59,49,2036,-11,-8,-3
36819763,-60,47,2037,-9,-7,-2
36839752,-62,52,2036,-10,-8,-2
36859741,-62,48,2039,-10,-8,-2
36879730,-59,53,2041,-11,-7,-2
36899719,-60,46,2039,-11,-7,-4
36919708,-57,48,2035,-11,-8,-3
36939697,-56,47,2039,-10,-8,-2
36959686,-59,49,2039,-11,-7,-2
36979675,-59,47,2034,-10,-8,-2
36999664,-59,45,2037,-10,-8,-2
37019653,-57,49,2039,-11,-7,-2
37039642,-59,47,2038,-11,-8,-3
37059631,-59,49,2038,-11,-7,-2
37079620,-57,49,2038,-11,-7,-2
37099609,-58,50,2033,-11,-9,-2
37119598,-55,46,2033,-11,-8,-3
37139587,-61,45,2037,-11,-7,-3
37159576,-58,49,2035,-12,-8,-3
37179565,-59,47,2034,-9,-8,-3
37199554,-59,49,2034,-9,-7,-3
37219543,-57,46,2034,-10,-8,-3
37239532,-58,45,2039,-11,-8,-3
37259521,-58,47,2037,-10,-7,-3
37279510,-57,52,2035,-10,-7,-2
37299499,-56,48,2038,-11,-7,-3
37319488,-58,44,2038,-10,-7,-3
37339477,-58,49,2039,-11,-7,-3
37359466,-62,50,2037,-12,-7,-2
37379455,-58,48,2036,-11,-9,-3
37399444,-60,48,2033,-10,-7,-3
37419433,-59,49,2038,-11,-7,-3
37439422,-58,49,2033,-12,-8,-3
37459411,-58,48,2035,-11,-9,-2
37479400,-57,49,2036,-11,-8,-2
37499389,-59,46,2036,-11,-7,-3
37519378,-58,49,2037,-12,-8,-3
37539367,-58,51,2034,-11,-8,-2
37559356,-59,49,2035,-11,-8,-3
37579345,-57,48,2035,-11,-9,-2
37599334,-58,47,2034,-11,-6,-3
37619323,-59,51,2033,-12,-7,-3
37639312,-60,49,2037,-11,-8,-2
37659301,-59,46,2037,-11,-7,-3
37679290,-58,47,2034,-12,-7,-2
37699279,-59,48,2036,-12,-9,-2
37719268,-59,51,2032,-11,-8,-2
37739257,-56,53,2031,-11,-8,-2
37759246,-58,46,2036,-10,-7,-2
37779235,-58,46,2038,-11,-7,-3
37799224,-58,48,2034,-11,-8,-2
37819213,-60,49,2032,-11,-8,-3
37839202,-58,47,2036,-11,-5,-3
37859191,-61,48,2038,-9,-6,-2
37879180,-59,49,2036,-11,-8,-1
37899169,-57,48,2034,-11,-9,-2
37919158,-58,51,2036,-11,-6,-3
37939147,-61,50,2038,-10,-7,-2
37959136,-58,47,2038,-11,-8,-3
37979125,-56,45,2040,-10,-8,-3
37999114,-58,49,2036,-10,-8,-2
38019104,-57,51,2036,-12,-8,-2
38039093,-58,48,2032,-11,-8,-3
38059082,-59,46,2035,-10,-8,-4
38079071,-59,47,2040,-11,-8,-2
38099060,-59,47,2034,-10,-8,-2
38119049,-59,48,2032,-10,-8,-3
38139038,-56,45,2037,-10,-7,-2
38159027,-57,49,2037,-10,-6,-2
38179016,-61,50,2036,-10,-7,-2
38199005,-58,51,2036,-10,-7,-3
38218994,-58,46,2035,-11,-8,-3
38238983,-61,47,2036,-11,-10,-3
38258972,-61,49,2035,-10,-5,-3
38278961,-58,48,2034,-10,-6,-2
38298950,-56,46,2034,-12,-10,-2
38318939,-57,46,2039,-9,-7,-2
38338928,-58,54,2032,-10,-7,-2
38358917,-56,45,2039,-13,-9,-4
38378906,-60,46,2036,-11,-7,-2
38398895,-58,50,2036,-11,-7,-2
38418884,-57,45,2035,-12,-9,-4
38438873,-58,46,2033,-10,-6,-3
38458862,-60,48,2036,-9,-7,-2
38478851,-58,49,2034,-12,-9,-2
38498840,-56,49,2034,-12,-7,-2
38518829,-56,51,2038,-10,-7,-3
38538818,-59,48,2039,-11,-8,-4
38558807,-58,52,2034,-11,-8,-2
38578796,-60,48,2036,-10,-7,-3
38598785,-57,48,2038,-10,-9,-3
38618774,-57,52,2036,-10,-7,-2
38638763,-56,49,2033,-10,-7,-2
38658752,-59,47,2035,-11,-9,-2
38678741,-58,50,2037,-10,-7,-3
38698730,-57,49,2033,-10,-6,-2
38718719,-60,47,2036,-12,-9,-3
38738708,-63,47,2036,-10,-8,-3
38758697,-58,49,2032,-11,-7,-3
38778686,-62,42,2037,-11,-8,-2
38798675,-59,49,2037,-10,-6,-3
38818664,-60,41,2038,-11,-6,-2
38838653,-59,48,2036,-12,-8,-2
38858642,-63,45,2034,-10,-8,-2
38878631,-58,50,2037,-9,-8,-3
38898620,-58,48,2040,-10,-8,-3
38918609,-58,51,2038,-10,-8,-3
38938598,-62,46,2036,-10,-7,-2
38958587,-59,54,2036,-9,-7,-2
38978576,-66,40,2033,-9,-8,-3
38998565,-57,51,2033,-10,-8,-3
39018554,-61,40,2038,-11,-7,-2
39038543,-59,51,2034,-11,-7,-2
39058532,-60,46,2036,-12,-9,-3
39078521,-59,47,2034,-11,-8,-3
39098510,-59,49,2035,-9,-7,-2
39118499,-62,44,2035,-10,-8,-3
39138488,-59,48,2034,-11,-8,-3
39158477,-59,47,2031,-10,-8,-2
39178466,-59,46,2036,-10,-7,-2
39198455,-60,49,2037,-10,-7,-2
39218444,-60,48,2035,-10,-8,-2
39238433,-56,46,2035,-11,-7,-3
39258422,-59,46,2031,-10,-7,-2
39278411,-59,52,2035,-11,-8,-3
39298400,-56,49,2035,-11,-8,-3
39318389,-56,50,2039,-10,-7,-2
39338378,-57,45,2037,-11,-6,-3
39358367,-57,46,2032,-12,-8,-2
39378356,-59,53,2032,-10,-7,-3
39398345,-61,49,2038,-9,-8,-3
39418334,-58,46,2042,-10,-9,-3
39438323,-59,46,2038,-11,-7,-2
39458312,-58,49,2034,-12,-7,-3
39478302,-54,49,2036,-12,-8,-2
39498291,-60,47,2040,-10,-7,-1
39518280,-61,49,2034,-10,-7,-2
39538269,-54,48,2035,-11,-8,-3
39558258,-60,46,2037,-9,-7,-3
39578247,-59,50,2036,-11,-7,-3
39598236,-57,46,2031,-11,-8,-3
39618225,-59,46,2038,-10,-7,-2
39638214,-59,45,2035,-10,-8,-3
39658203,-57,50,2038,-11,-8,-3
39678192,-60,51,2038,-10,-8,-2
39698181,-63,49,2036,-10,-8,-2
39718170,-57,49,2035,-12,-8,-3
39738159,-57,45,2034,-11,-6,-3
39758148,-57,50,2039,-11,-7,-3
39778137,-61,50,2033,-11,-8,-2
39798126,-60,51,2035,-11,-7,-3
39818115,-58,49,2036,-11,-7,-3
39838104,-58,51,2038,-10,-8,-2
39858093,-59,51,2036,-11,-7,-2
39878082,-60,50,2036,-12,-7,-3
39898071,-62,47,2036,-11,-7,-2
39918060,-55,45,2035,-10,-8,-2
39938049,-56,47,2041,-10,-10,-3
39958038,-58,49,2036,-11,-9,-2
39978027,-61,48,2036,-11,-7,-2
39998016,-61,45,2034,-10,-7,-3
40018005,-59,47,2036,-9,-8,-3
40037994,-57,49,2036,-11,-6,-3
40057983,-57,47,2033,-12,-7,-3
40077972,-60,50,2040,-11,-7,-3
40097961,-60,46,2040,-10,-8,-2
40117950,-58,44,2034,-10,-8,-1
40137939,-57,45,2033,-10,-8,-2
40157928,-58,46,2036,-11,-8,-3
40177917,-60,50,2038,-10,-7,-2
40197906,-58,49,2036,-11,-8,-3
40217895,-57,46,2034,-11,-8,-3
40237884,-58,47,2033,-11,-7,-2
40257873,-56,51,2033,-11,-7,-2
40277862,-57,49,2035,-10,-9,-3
40297851,-59,47,2033,-10,-7,-3
40317840,-58,49,2034,-10,-8,-3
40337829,-57,51,2038,-10,-9,-3
40357818,-59,50,2041,-9,-8,-4
40377807,-56,48,2035,-9,-8,-4
40397796,-55,50,2035,-11,-8,-3
40417785,-56,49,2035,-11,-7,-3
40437774,-61,45,2037,-10,-6,-3
40457763,-60,49,2037,-10,-6,-2
40477752,-59,50,2037,-11,-7,-2
40497741,-59,48,2035,-10,-7,-3
40517730,-60,47,2038,-12,-9,-2
40537719,-60,48,2035,-11,-7,-1
40557708,-58,47,2035,-10,-7,-3
40577697,-59,47,2038,-11,-9,-3
40597686,-57,49,2034,-12,-7,-4
40617675,-60,47,2038,-10,-6,-2
40637664,-60,48,2036,-12,-8,-2
40657653,-57,48,2035,-11,-6,-2
40677642,-58,50,2036,-11,-6,-3
40697631,-58,52,2035,-10,-7,-3
40717620,-59,49,2035,-11,-7,-2
40737609,-59,49,2035,-12,-8,-2
40757598,-60,49,2037,-12,-8,-2
40777587,-57,50,2035,-12,-8,-2
40797576,-58,48,2035,-12,-8,-2
40817565,-58,49,2038,-10,-8,-3
40837554,-60,49,2034,-10,-8,-3
40857543,-59,51,2038,-11,-7,-3
40877532,-58,48,2038,-10,-7,-3
40897521,-59,47,2038,-10,-7,-3
40917510,-60,49,2036,-11,-7,-3
40937500,-60,49,2036,-8,-6,-2
40957489,-58,50,2039,-10,-7,-3
40977478,-58,47,2035,-12,-8,-2
40997467,-58,46,2037,-10,-7,-2
41017456,-57,53,2036,-10,-7,-3
41037445,-58,49,2036,-11,-8,-3
41057434,-60,49,2034,-10,-7,-2
41077423,-60,47,2039,-11,-7,-2
41097412,-60,46,2038,-10,-8,-3
41117401,-58,46,2034,-9,-7,-2
41137390,-58,49,2035,-10,-8,-2
41157379,-57,47,2032,-10,-7,-2
41177368,-56,47,2031,-10,-6,-3
41197357,-58,49,2038,-11,-8,-3
41217346,-58,51,2035,-11,-7,-3
41237335,-60,45,2035,-10,-6,-2
41257324,-58,47,2035,-12,-8,-2
41277313,-58,47,2035,-12,-7,-3
41297302,-59,49,2040,-10,-7,-3
41317291,-58,47,2036,-10,-8,-3
41337280,-58,48,2037,-11,-7,-2
41357269,-57,48,2033,-10,-7,-2
41377258,-59,48,2035,-11,-8,-3
41397247,-60,49,2034,-12,-8,-3
41417236,-56,46,2035,-11,-8,-3
41437225,-56,49,2038,-11,-8,-3
41457214,-60,49,2035,-11,-7,-3
41477203,-59,49,2037,-11,-8,-3
41497192,-57,48,2035,-11,-7,-3
41517181,-56,48,2035,-11,-7,-2
41537170,-56,46,2037,-12,-8,-2
41557159,-57,44,2038,-12,-7,-2
41577148,-58,49,2035,-11,-9,-2
41597137,-59,43,2033,-10,-8,-2
41617126,-54,48,2033,-11,-8,-2
41637115,-58,48,2038,-11,-6,-3
41657104,-60,50,2039,-11,-7,-4
41677093,-58,49,2035,-10,-7,-4
41697082,-60,49,2033,-11,-8,-3
41717071,-58,47,2033,-12,-9,-3
41737060,-59,46,2038,-11,-8,-3
41757049,-58,48,2031,-10,-7,-3
41777038,-57,47,2033,-10,-8,-2
41797027,-58,46,2037,-10,-7,-2
41817016,-58,46,2039,-11,-9,-3
41837005,-57,50,2038,-10,-8,-2
41856994,-58,47,2036,-10,-8,-1
41876983,-58,48,2037,-11,-7,-2
41896972,-58,47,2037,-11,-7,-3
41916961,-56,51,2034,-11,-8,-3
41936950,-62,51,2035,-11,-8,-2
41956939,-60,47,2036,-11,-7,-3
41976928,-56,47,2034,-11,-7,-2
41996917,-59,48,2034,-11,-8,-2
42016906,-57,48,2035,-10,-8,-3
42036895,-59,47,2036,-10,-7,-3
42056884,-58,52,2035,-10,-6,-3
42076873,-59,48,2037,-11,-7,-2
42096862,-57,47,2038,-11,-9,-2
42116851,-61,52,2036,-11,-7,-3
42136840,-59,46,2034,-11,-7,-3
42156829,-57,49,2039,-11,-8,-2
42176818,-58,48,2040,-11,-7,-3
42196807,-58,50,2036,-10,-8,-3
42216796,-58,47,2032,-10,-7,-3
42236785,-60,47,2036,-10,-7,-2
42256774,-57,49,2037,-10,-8,-2
42276763,-60,48,2034,-11,-8,-3
42296752,-61,48,2038,-11,-8,-3
42316741,-61,49,2036,-12,-7,-3
42336730,-57,49,2037,-11,-7,-2
42356719,-56,48,2035,-11,-7,-2
42376708,-57,46,2036,-10,-7,-3
42396697,-59,49,2038,-11,-7,-3
42416687,-58,48,2033,-11,-8,-4
42436676,-58,46,2040,-11,-8,-3
42456665,-58,49,2039,-11,-7,-3
42476654,-58,44,2034,-11,-8,-2
42496643,-59,47,2037,-12,-8,-2
42516632,-57,49,2036,-11,-7,-2
42536621,-58,52,2039,-11,-7,-3
42556610,-59,51,2037,-11,-8,-3
42576599,-58,47,2036,-11,-8,-3
42596588,-59,50,2037,-11,-8,-2
42616577,-58,47,2035,-11,-8,-2
42636566,-57,48,2036,-10,-8,-3
42656555,-61,46,2043,-11,-7,-2
42676544,-60,54,2031,-11,-8,-2
42696533,-63,42,2039,-11,-7,-2
42716522,-57,47,2033,-12,-7,-2
42736511,-58,48,2036,-11,-7,-3
42756500,-64,38,2036,-10,-8,-3
42776489,-60,49,2034,-12,-8,-2
42796478,-59,48,2038,-11,-7,-3
42816467,-59,49,2037,-11,-7,-3
42836456,-62,47,2035,-10,-8,-2
42856445,-60,48,2036,-10,-7,-3
42876434,-57,53,2035,-11,-6,-3
42896423,-60,47,2033,-10,-8,-1
42916412,-57,53,2033,-11,-7,-2
42936401,-63,48,2039,-12,-7,-3
42956390,-60,44,2038,-12,-8,-4
42976379,-60,51,2035,-10,-7,-3
42996368,-59,51,2038,-10,-8,-3
43016357,-59,50,2036,-11,-7,-3
43036346,-62,45,2039,-12,-6,-3
43056335,-60,52,2033,-11,-7,-2
43076324,-57,48,2036,-11,-7,-2
43096313,-58,48,2035,-11,-7,-3
43116302,-58,48,2036,-12,-8,-3
43136291,-59,50,2034,-11,-8,-2
43156280,-56,52,2034,-10,-8,-2
43176269,-56,49,2033,-9,-8,-1
43196258,-59,45,2036,-11,-8,-2
43216247,-63,51,2038,-11,-8,-3
43236236,-58,50,2032,-11,-7,-2
43256225,-58,48,2034,-10,-8,-3
43276214,-59,47,2037,-11,-7,-2
43296203,-60,49,2037,-12,-7,-2
43316192,-59,50,2034,-11,-8,-2
43336181,-58,48,2034,-11,-7,-3
43356170,-60,49,2036,-10,-9,-3
43376159,-56,46,2038,-11,-8,-3
43396148,-56,47,2037,-12,-8,-2
43416137,-63,45,2032,-11,-7,-3
43436126,-58,48,2032,-10,-8,-3
43456115,-57,51,2038,-11,-8,-2
43476104,-59,54,2038,-10,-8,-3
43496093,-58,50,2038,-10,-7,-2
43516082,-59,47,2032,-11,-7,-3
43536071,-59,51,2033,-11,-7,-4
43556060,-57,45,2035,-12,-8,-2
43576049,-58,48,2034,-11,-7,-2
43596038,-60,49,2037,-10,-7,-4
43616027,-59,48,2038,-11,-8,-3
43636016,-58,49,2042,-11,-8,-3
43656005,-60,44,2040,-10,-8,-4
43675994,-58,49,2040,-10,-7,-3
43695983,-59,44,2035,-11,-6,-3
43715972,-59,47,2037,-11,-8,-3
43735961,-59,49,2037,-12,-8,-3
43755950,-62,42,2034,-10,-7,-3
43775939,-59,49,2032,-11,-7,-2
43795928,-60,40,2038,-11,-7,-3
43815917,-55,54,2033,-11,-7,-3
43835906,-58,43,2034,-11,-9,-2
43855895,-57,47,2035,-10,-8,-3
43875885,-58,47,2034,-11,-7,-3
43895874,-64,46,2034,-10,-8,-2
43915863,-58,51,2035,-12,-8,-2
43935852,-58,44,2037,-10,-7,-3
43955841,-58,51,2035,-10,-7,-2
43975830,-59,49,2038,-10,-7,-3
43995819,-59,48,2040,-11,-7,-3
44015808,-56,49,2033,-11,-8,-3
44035797,-57,46,2037,-11,-8,-2
44055786,-57,50,2032,-10,-8,-2
44075775,-58,47,2037,-11,-7,-2
44095764,-58,47,2038,-11,-8,-3
44115753,-59,50,2035,-12,-8,-4
44135742,-58,45,2035,-10,-7,-3
44155731,-57,49,2035,-11,-8,-3
44175720,-58,48,2038,-11,-7,-3
44195709,-60,47,2035,-11,-9,-3
44215698,-58,47,2034,-11,-8,-2
44235687,-59,46,2035,-11,-8,-2
44255676,-57,47,2037,-11,-8,-3
44275665,-58,44,2038,-10,-8,-3
44295654,-60,45,2036,-11,-7,-2
44315643,-60,47,2039,-11,-7,-2
44335632,-60,50,2036,-11,-6,-2
44355621,-56,52,2035,-11,-8,-2
44375610,-58,48,2038,-11,-7,-3
44395599,-58,45,2034,-10,-7,-3
44415588,-58,48,2036,-13,-8,-3
44435577,-60,49,2035,-12,-8,-2
44455566,-63,47,2038,-10,-8,-2
44475555,-60,50,2040,-11,-8,-2
44495544,-58,50,2038,-10,-8,-3
44515533,-58,45,2034,-10,-8,-2
44535522,-57,46,2033,-10,-8,-3
44555511,-58,48,2034,-10,-8,-3
44575500,-58,50,2034,-12,-9,-3
44595489,-61,51,2033,-12,-8,-2
44615478,-58,47,2037,-11,-8,-3
44635467,-59,51,2037,-11,-8,-3
44655456,-60,48,2037,-11,-8,-2
44675445,-59,48,2036,-10,-8,-3
44695434,-61,50,2034,-10,-7,-2
44715423,-61,48,2037,-12,-7,-2
44735412,-57,49,2034,-11,-8,-2
44755401,-57,50,2032,-11,-8,-3
44775390,-59,47,2036,-10,-7,-2
44795379,-60,48,2036,-10,-8,-3
44815368,-57,50,2036,-11,-7,-3
44835357,-58,48,2038,-10,-7,-3
44855346,-59,45,2035,-10,-8,-1
44875335,-58,44,2035,-12,-8,-1
44895324,-58,46,2036,-12,-9,-3
44915313,-60,46,2035,-11,-8,-3
44935302,-57,47,2034,-11,-8,-3
44955291,-61,43,2033,-11,-8,-2
44975280,-60,47,2037,-11,-7,-2
44995269,-59,50,2036,-11,-7,-4
45015258,-60,45,2035,-11,-7,-3
45035247,-60,47,2034,-11,-7,-2
45055236,-58,46,2036,-11,-7,-2
45075225,-57,44,2035,-10,-8,-3
45095214,-59,46,2034,-10,-8,-3
45115203,-58,49,2035,-10,-7,-2
45135192,-56,47,2036,-11,-9,-2
45155181,-56,43,2035,-11,-8,-2
45175170,-60,47,2034,-11,-7,-2
45195159,-60,47,2039,-10,-7,-2
45215148,-56,48,2036,-11,-8,-3
45235137,-61,47,2036,-10,-8,-3
45255126,-57,51,2037,-11,-8,-3
45275115,-62,40,2039,-11,-7,-2
45295104,-58,49,2032,-9,-8,-2
45315093,-60,49,2036,-11,-7,-3
45335083,-59,49,2034,-9,-8,-4
45355072,-58,46,2034,-11,-6,-2
45375061,-60,45,2034,-12,-7,-2
45395050,-58,51,2034,-10,-8,-2
45415039,-61,43,2036,-10,-7,-2
45435028,-60,50,2037,-12,-7,-2
45455017,-56,45,2036,-12,-8,-3
45475006,-57,46,2035,-11,-7,-3
45494995,-58,51,2034,-12,-8,-3
45514984,-60,46,2038,-10,-9,-3
45534973,-58,49,2033,-10,-7,-3
45554962,-62,47,2038,-11,-7,-2
45574951,-60,48,2036,-10,-7,-3
45594940,-55,51,2034,-10,-7,-3
45614929,-60,47,2037,-10,-7,-3
45634918,-59,50,2033,-11,-8,-1
45654907,-58,51,2036,-10,-8,-2
45674896,-59,52,2036,-11,-7,-2
45694885,-58,50,2034,-10,-8,-3
45714874,-61,47,2036,-10,-8,-2
45734863,-61,47,2035,-11,-8,-2
45754852,-59,45,2038,-12,-7,-4
45774841,-59,44,2042,-11,-7,-3
45794830,-60,45,2035,-10,-7,-2
45814819,-57,48,2034,-11,-7,-3
45834808,-58,50,2039,-12,-8,-4
45854797,-59,46,2035,-11,-8,-3
45874786,-59,52,2035,-11,-7,-2
45894775,-58,51,2034,-12,-8,-2
45914764,-56,47,2038,-11,-8,-3
45934753,-61,45,2037,-11,-8,-2
45954742,-57,48,2035,-10,-8,-2
45974731,-57,49,2035,-12,-8,-2
45994720,-56,48,2035,-11,-7,-2
46014709,-59,48,2038,-11,-8,-2
46034698,-57,48,2035,-10,-8,-3
46054687,-56,48,2037,-10,-6,-1
46074676,-59,49,2035,-11,-8,-2
46094665,-60,49,2037,-11,-7,-2
46114654,-62,49,2038,-10,-6,-3
46134643,-59,48,2038,-11,-7,-3
46154632,-57,43,2036,-11,-8,-2
46174621,-57,51,2038,-10,-7,-2
46194610,-56,50,2034,-11,-8,-3
46214599,-59,46,2037,-11,-8,-3
46234588,-57,50,2036,-11,-8,-2
46254577,-58,46,2034,-11,-9,-3
46274566,-55,48,2037,-11,-7,-3
46294555,-55,49,2035,-10,-7,-3
46314544,-58,46,2038,-12,-8,-2
46334533,-57,48,2034,-12,-7,-3
46354522,-61,48,2035,-10,-7,-2
46374511,-60,47,2040,-10,-7,-3
46394500,-59,46,2038,-10,-8,-3
46414489,-60,48,2036,-10,-8,-3
46434478,-61,48,2036,-10,-8,-3
46454467,-59,47,2038,-11,-8,-4
46474456,-59,49,2035,-11,-6,-3
46494445,-59,50,2033,-10,-8,-3
46514434,-59,49,2035,-10,-8,-3
46534423,-59,47,2037,-11,-6,-3
46554412,-57,48,2034,-11,-8,-2
46574401,-57,45,2030,-11,-8,-2
46594390,-59,47,2037,-11,-7,-2
46614379,-60,51,2037,-10,-7,-3
46634368,-57,50,2037,-10,-8,-3
46654357,-61,50,2036,-11,-8,-2
46674346,-60,48,2032,-12,-7,-3
46694335,-58,47,2034,-10,-7,-2
46714324,-56,50,2038,-10,-8,-2
46734313,-60,49,2036,-10,-8,-1
46754302,-57,48,2035,-11,-7,-2
46774291,-58,51,2035,-11,-7,-2
46794281,-56,51,2038,-11,-7,-3
46814270,-61,45,2035,-10,-7,-2
46834259,-61,44,2034,-10,-8,-2
46854248,-58,48,2033,-9,-6,-3
46874237,-59,53,2038,-11,-7,-3
46894226,-59,48,2034,-10,-9,-2
46914215,-58,44,2034,-9,-8,-2
46934204,-61,47,2030,-11,-7,-3
46954193,-59,51,2035,-11,-9,-3
46974182,-59,50,2037,-11,-6,-2
46994171,-61,47,2033,-11,-6,-2
47014160,-56,47,2036,-11,-9,-3
47034149,-57,50,2038,-9,-7,-4
47054138,-58,48,2039,-9,-7,-2
47074127,-57,48,2039,-12,-10,-2
47094116,-59,48,2036,-11,-6,-2
47114105,-57,48,2036,-11,-6,-3
47134094,-60,49,2033,-11,-9,-4
47154083,-57,48,2032,-11,-7,-3
47174072,-62,47,2036,-10,-7,-2
47194061,-59,45,2035,-11,-9,-2
47214050,-59,45,2035,-11,-7,-2
47234039,-59,51,2035,-10,-7,-2
47254028,-59,47,2037,-11,-9,-3
47274017,-61,46,2031,-10,-7,-3
47294006,-59,48,2036,-10,-7,-2
47313995,-58,49,2035,-11,-8,-2
47333984,-61,49,2036,-12,-7,-2
47353973,-60,46,2038,-10,-8,-3
47373962,-59,48,2035,-11,-8,-3
47393951,-61,44,2035,-10,-7,-3
47413940,-60,47,2034,-11,-7,-3
47433929,-58,48,2032,-11,-8,-3
47453918,-60,47,2037,-11,-6,-3
47473907,-59,49,2036,-10,-7,-3
47493896,-61,48,2034,-11,-8,-2
47513885,-62,51,2034,-11,-6,-2
47533874,-58,45,2036,-12,-9,-3
47553863,-57,48,2034,-11,-8,-3
47573852,-63,47,2037,-8,-6,-2
47593841,-58,45,2033,-10,-9,-2
47613830,-58,47,2037,-11,-8,-3
47633819,-60,50,2036,-9,-6,-3
47653808,-57,48,2035,-11,-8,-2
47673797,-58,48,2036,-12,-6,-3
47693786,-61,47,2032,-11,-5,-3
47713775,-59,47,2033,-12,-8,-3
47733764,-56,47,2035,-10,-8,-2
47753753,-58,49,2035,-9,-6,-2
47773742,-59,48,2037,-11,-9,-2
47793731,-60,48,2036,-12,-8,-3
47813720,-61,51,2033,-10,-6,-3
47833709,-59,48,2038,-10,-8,-2
47853698,-60,49,2037,-11,-8,-2
47873687,-61,49,2034,-9,-6,-3
47893676,-60,50,2038,-11,-9,-3
47913665,-60,47,2038,-11,-8,-3
47933654,-58,50,2037,-10,-6,-3
47953643,-59,49,2034,-12,-9,-2
47973632,-60,48,2032,-12,-8,-2
47993621,-60,49,2036,-10,-7,-3
48013610,-62,47,2034,-11,-8,-2
48033599,-58,47,2034,-11,-7,-2
48053588,-62,47,2038,-11,-6,-2
48073577,-61,47,2038,-10,-9,-2
48093566,-60,50,2036,-11,-8,-3
48113555,-61,47,2038,-11,-7,-4
48133544,-60,47,2035,-11,-9,-3
48153533,-56,48,2038,-10,-7,-1
48173522,-58,47,2037,-10,-6,-2
48193511,-60,47,2034,-12,-8,-2
48213500,-60,46,2038,-12,-7,-3
48233489,-60,46,2032,-10,-7,-2
48253479,-60,50,2032,-12,-9,-3
48273468,-58,48,2036,-10,-7,-3
48293457,-60,52,2032,-11,-6,-3
48313446,-59,49,2036,-11,-10,-3
48333435,-58,49,2036,-10,-7,-2
48353424,-60,50,2036,-10,-6,-2
48373413,-59,52,2035,-11,-9,-3
48393402,-60,47,2034,-12,-7,-2
48413391,-57,48,2033,-12,-6,-2
48433380,-57,53,2036,-12,-8,-3
48453369,-57,48,2032,-10,-7,-3
48473358,-57,48,2034,-11,-7,-3
48493347,-58,48,2040,-12,-8,-3
48513336,-57,48,2035,-10,-7,-2
48533325,-61,46,2036,-12,-8,-2
48553314,-60,47,2037,-11,-8,-2
48573303,-58,48,2036,-11,-8,-3
48593292,-59,46,2038,-11,-7,-3
48613281,-58,48,2031,-11,-8,-3
48633270,-60,47,2037,-11,-7,-3
48653259,-60,50,2039,-11,-7,-2
48673248,-59,48,2037,-11,-7,-3
48693237,-58,47,2035,-10,-7,-2
48713226,-58,48,2035,-11,-8,-3
48733215,-58,47,2038,-11,-8,-2
48753204,-59,48,2032,-9,-7,-2
48773193,-59,51,2040,-10,-7,-2
48793182,-59,46,2038,-11,-9,-2
48813171,-60,49,2033,-9,-7,-2
48833160,-62,48,2041,-11,-6,-2
48853149,-59,46,2033,-11,-9,-2
48873138,-59,46,2033,-10,-7,-2
48893127,-59,47,2033,-10,-7,-2
48913116,-60,49,2035,-9,-7,-3
48933105,-59,48,2032,-12,-8,-2
48953094,-58,47,2038,-10,-7,-2
48973083,-57,47,2035,-10,-8,-2
48993072,-58,46,2037,-11,-8,-2
49013061,-62,51,2035,-11,-6,-2
49033050,-58,48,2033,-10,-8,-3
49053039,-61,45,2036,-9,-8,-3
49073028,-61,48,2033,-10,-7,-3
49093017,-58,47,2040,-11,-8,-2
49113006,-60,52,2037,-11,-8,-2
49132995,-60,46,2038,-11,-7,-3
49152984,-61,47,2032,-10,-7,-2
49172973,-58,50,2032,-11,-7,-3
49192962,-58,48,2036,-10,-7,-3
49212951,-58,49,2042,-10,-8,-2
49232940,-56,47,2037,-10,-8,-3
49252929,-58,47,2038,-10,-7,-3
49272918,-59,48,2039,-12,-7,-3
49292907,-59,49,2033,-11,-7,-2
49312896,-61,49,2036,-11,-7,-2
49332885,-58,49,2041,-11,-8,-2
49352874,-58,47,2036,-11,-8,-2
49372863,-56,49,2027,-10,-8,-3
49392852,-66,37,2038,-11,-8,-4
49412841,-56,53,2045,-10,-8,-3
49432830,-63,41,2042,-10,-8,-3
49452819,-61,55,2043,-11,-7,-3
49472808,-61,42,2042,-10,-7,-3
49492797,-58,53,2041,-11,-9,-3
49512786,-61,41,2035,-11,-8,-2
49532775,-59,48,2036,-10,-7,-2
49552764,-59,47,2032,-12,-9,-2
49572753,-61,44,2033,-11,-8,-2
49592742,-60,53,2037,-11,-6,-2
49612731,-58,47,2033,-11,-7,-2
49632720,-59,49,2033,-10,-7,-2
49652709,-61,47,2037,-11,-7,-2
49672698,-61,46,2039,-11,-8,-4
49692687,-58,49,2034,-11,-8,-3
49712677,-63,45,2036,-12,-7,-3
49732666,-61,49,2037,-11,-8,-2
49752655,-61,49,2037,-10,-8,-2
49772644,-60,44,2040,-10,-7,-3
49792633,-60,51,2034,-11,-7,-3
49812622,-57,51,2038,-11,-7,-3
49832611,-60,46,2041,-11,-7,-3
49852600,-57,52,2036,-11,-7,-2
49872589,-63,41,2031,-10,-7,-2
49892578,-57,49,2035,-10,-8,-2
49912567,-58,45,2036,-10,-7,-2
49932556,-59,51,2036,-10,-7,-3
49952545,-57,52,2040,-12,-9,-3
49972534,-60,49,2038,-11,-7,-2
49992523,-62,47,2034,-11,-6,-2
50012512,-61,47,2038,-10,-8,-2
50032501,-57,51,2036,-10,-8,-3
50052490,-60,48,2038,-10,-6,-3
50072479,-59,50,2042,-11,-8,-2
50092468,-61,47,2039,-11,-8,-3
50112457,-58,46,2035,-10,-7,-2
50132446,-57,48,2035,-11,-8,-2
50152435,-58,48,2037,-11,-6,-3
50172424,-57,47,2036,-11,-7,-2
50192413,-58,50,2035,-11,-7,-1
50212402,-58,52,2037,-11,-7,-1
50232391,-55,51,2037,-11,-7,-3
50252380,-62,47,2037,-10,-7,-3
50272369,-60,50,2031,-11,-7,-3
50292358,-58,48,2033,-11,-8,-3
50312347,-58,45,2036,-10,-8,-4
50332336,-57,51,2036,-11,-8,-3
50352325,-59,50,2037,-10,-8,-2
50372314,-61,48,2035,-11,-7,-2
50392303,-58,52,2038,-11,-8,-3
50412292,-59,47,2037,-12,-8,-3
50432281,-59,50,2039,-11,-8,-2
50452270,-58,47,2033,-10,-8,-2
50472259,-61,49,2038,-10,-6,-2
50492248,-60,47,2040,-10,-6,-2
50512237,-57,46,2037,-10,-8,-2
50532226,-61,47,2038,-10,-7,-2
50552215,-60,48,2037,-9,-7,-2
50572204,-60,48,2039,-11,-8,-3
50592193,-56,46,2041,-12,-8,-2
50612182,-57,46,2035,-12,-8,-3
50632171,-56,50,2037,-11,-7,-2
50652160,-60,47,2039,-10,-7,-2
50672149,-60,41,2033,-10,-8,-2
50692138,-60,46,2034,-11,-8,-2
50712127,-59,47,2038,-12,-7,-3
50732116,-58,46,2038,-11,-8,-3
50752105,-56,49,2033,-10,-7,-3
50772094,-61,49,2035,-10,-8,-3
50792083,-59,50,2035,-10,-8,-2
50812072,-58,48,2037,-11,-7,-2
50832061,-60,53,2036,-10,-7,-2
50852050,-59,49,2039,-10,-8,-2
50872039,-56,49,2038,-11,-8,-3
50892028,-56,51,2031,-10,-7,-3
50912017,-61,43,2038,-9,-7,-3
50932006,-60,52,2039,-11,-9,-3
50951995,-60,42,2039,-11,-9,-2
50971984,-56,50,2038,-9,-8,-2
50991973,-58,53,2032,-10,-6,-3
51011962,-63,41,2037,-11,-9,-3
51031951,-61,52,2038,-10,-7,-2
51051940,-61,39,2041,-8,-5,-2
51071929,-58,53,2037,-11,-8,-4
51091918,-61,42,2042,-11,-9,-3
51111907,-62,45,2043,-11,-7,-3
51131896,-58,44,2038,-11,-8,-3
51151885,-60,42,2037,-10,-7,-3
51171875,-57,55,2030,-10,-7,-1
51191864,-58,46,2033,-11,-8,-2
51211853,-62,51,2033,-10,-7,-3
51231842,-63,47,2038,-11,-7,-3
51251831,-59,46,2035,-11,-7,-3
51271820,-56,50,2035,-12,-9,-3
51291809,-60,44,2040,-9,-8,-3
51311798,-58,52,2032,-11,-7,-3
51331787,-57,44,2033,-11,-7,-3
51351776,-60,47,2036,-10,-6,-3
51371765,-58,47,2036,-11,-8,-2
51391754,-58,47,2034,-11,-10,-3
51411743,-60,48,2035,-10,-7,-2
51431732,-60,46,2038,-12,-8,-2
51451721,-58,47,2039,-10,-8,-3
51471710,-56,51,2035,-10,-6,-3
51491699,-60,48,2037,-10,-8,-1
51511688,-57,50,2038,-11,-9,-2
51531677,-58,46,2035,-11,-7,-3
51551666,-61,48,2034,-11,-8,-3
51571655,-60,48,2034,-11,-8,-4
51591644,-60,47,2040,-11,-6,-3
51611633,-59,42,2041,-11,-7,-2
51631622,-55,46,2036,-10,-7,-3
51651611,-58,49,2032,-10,-6,-2
51671600,-59,47,2036,-11,-8,-3
51691589,-56,48,2032,-11,-8,-2
51711578,-59,47,2031,-11,-6,-2
51731567,-59,49,2038,-11,-6,-2
51751556,-59,52,2035,-11,-8,-3
51771545,-56,48,2033,-11,-8,-2
51791534,-58,48,2035,-10,-7,-3
51811523,-59,48,2038,-11,-8,-3
51831512,-60,45,2038,-10,-7,-3
51851501,-58,44,2037,-10,-7,-2
51871490,-57,48,2038,-10,-8,-1
51891479,-60,50,2034,-10,-8,-3
51911468,-60,49,2036,-11,-6,-3
51931457,-60,48,2036,-10,-8,-3
51951446,-61,47,2036,-10,-7,-4
51971435,-59,46,2037,-11,-7,-3
51991424,-57,50,2034,-10,-7,-3
52011413,-59,45,2031,-12,-6,-2
52031402,-59,51,2034,-10,-7,-2
52051391,-59,48,2036,-10,-8,-3
52071380,-58,45,2036,-11,-8,-3
52091369,-62,52,2037,-9,-7,-3
52111358,-64,42,2037,-9,-8,-2
52131347,-57,48,2038,-9,-7,-3
52151336,-58,48,2037,-9,-7,-2
52171325,-62,43,2032,-11,-8,-3
52191314,-59,50,2039,-10,-8,-3
52211303,-63,48,2038,-10,-7,-4
52231292,-57,49,2041,-11,-8,-3
52251281,-58,50,2035,-11,-6,-2
52271270,-60,46,2037,-10,-8,-3
52291259,-59,48,2037,-10,-9,-3
52311248,-58,48,2038,-10,-6,-2
52331237,-60,49,2035,-11,-7,-3
52351226,-59,50,2035,-12,-8,-2
52371215,-57,48,2039,-10,-6,-2
52391204,-60,51,2035,-11,-8,-2
52411193,-55,47,2036,-10,-8,-3
52431182,-56,51,2032,-10,-6,-3
52451171,-57,48,2038,-11,-7,-2
52471160,-59,48,2036,-10,-8,-3
52491149,-58,46,2038,-10,-7,-2
52511138,-61,49,2037,-11,-7,-3
52531127,-59,43,2037,-12,-8,-3
52551116,-59,44,2034,-10,-8,-3
52571105,-59,45,2032,-11,-8,-2
52591094,-57,50,2035,-11,-8,-2
52611083,-57,48,2033,-10,-7,-3
52631072,-62,48,2034,-11,-7,-3
52651062,-57,46,2034,-10,-7,-2
52671051,-57,48,2037,-11,-7,-3
52691040,-59,48,2038,-12,-9,-2
52711029,-58,49,2039,-11,-7,-2
52731018,-61,51,2039,-9,-6,-3
52751007,-61,44,2037,-11,-8,-2
52770996,-59,48,2034,-12,-7,-4
52790985,-62,47,2037,-11,-7,-3
52810974,-61,45,2037,-11,-8,-2
52830963,-59,48,2034,-10,-7,-2
52850952,-62,46,2037,-10,-7,-2
52870941,-58,50,2034,-12,-8,-2
52890930,-58,48,2036,-10,-8,-2
52910919,-59,42,2035,-11,-8,-2
52930908,-59,47,2036,-12,-9,-3
52950897,-58,48,2034,-11,-8,-2
52970886,-57,45,2034,-10,-7,-2
52990875,-57,49,2036,-11,-8,-2
53010864,-57,49,2033,-12,-7,-2
53030853,-58,49,2036,-9,-8,-2
53050842,-60,49,2040,-10,-8,-3
53070831,-58,49,2037,-11,-8,-3
53090820,-58,49,2035,-10,-7,-2
53110809,-58,47,2038,-10,-8,-2
53130798,-59,45,2038,-10,-7,-2
53150787,-61,49,2036,-11,-8,-3
53170776,-58,48,2038,-10,-9,-3
53190765,-59,48,2035,-11,-7,-2
53210754,-59,48,2036,-11,-7,-3
53230743,-60,45,2034,-12,-9,-4
53250732,-59,49,2038,-12,-7,-3
53270721,-61,46,2035,-11,-7,-2
53290710,-57,50,2032,-11,-7,-3
53310699,-60,48,2034,-11,-8,-3
53330688,-59,51,2035,-11,-7,-3
53350677,-57,50,2034,-11,-7,-3
53370666,-60,42,2038,-10,-7,-2
53390655,-60,48,2037,-12,-7,-2
53410644,-62,50,2037,-12,-8,-3
53430633,-58,48,2036,-11,-8,-2
53450622,-59,49,2036,-11,-7,-2
53470611,-59,44,2038,-11,-8,-3
53490600,-58,48,2035,-11,-8,-3
53510589,-59,46,2036,-10,-7,-3
53530578,-58,48,2034,-12,-9,-3
53550567,-59,49,2037,-10,-7,-2
53570556,-61,47,2039,-11,-7,-2
53590545,-57,47,2034,-11,-10,-2
53610534,-58,47,2035,-11,-8,-3
53630523,-58,45,2035,-11,-6,-4
53650512,-59,47,2033,-12,-7,-3
53670501,-63,46,2037,-9,-7,-2
53690490,-61,50,2039,-11,-9,-3
53710479,-58,46,2037,-10,-7,-2
53730468,-60,45,2038,-9,-7,-2
53750457,-62,48,2038,-12,-8,-3
53770446,-61,47,2035,-11,-9,-3
53790435,-59,47,2037,-11,-7,-2
53810424,-56,48,2034,-11,-6,-3
53830413,-59,44,2035,-12,-7,-3
53850402,-57,45,2035,-11,-7,-3
53870391,-56,48,2037,-9,-7,-3
53890380,-62,49,2034,-10,-8,-2
53910369,-57,48,2034,-11,-7,-3
53930358,-58,46,2032,-11,-7,-2
53950347,-62,46,2038,-11,-8,-3
53970336,-58,50,2037,-11,-7,-3
53990325,-56,46,2037,-10,-7,-3
54010314,-57,46,2038,-11,-7,-3
54030303,-60,47,2041,-9,-7,-3
54050292,-58,46,2038,-11,-8,-3
54070281,-58,45,2036,-11,-7,-2
54090270,-57,51,2035,-11,-5,-2
54110260,-60,46,2032,-12,-8,-3
54130249,-57,47,2035,-11,-9,-3
54150238,-59,49,2037,-11,-6,-3
54170227,-59,48,2037,-11,-9,-2
54190216,-58,47,2036,-13,-8,-2
54210205,-61,45,2037,-10,-6,-3
54230194,-60,48,2036,-11,-8,-3
54250183,-60,44,2030,-11,-10,-3
54270172,-59,49,2032,-9,-7,-3
54290161,-65,49,2032,-10,-6,-3
54310150,-56,50,2035,-12,-9,-2
54330139,-55,47,2037,-10,-7,-3
54350128,-61,48,2036,-10,-3,-4
54370117,-59,51,2032,-12,-9,-2
54390106,-57,46,2036,-12,-12,-2
54410095,-57,48,2038,-10,-5,-2
54430084,-62,47,2035,-10,-5,-2
54450073,-58,49,2037,-11,-10,-4
54470062,-57,47,2039,-11,-7,-4
54490051,-63,44,2035,-11,-8,-3
54510040,-60,51,2036,-10,-8,-2
54530029,-61,48,2034,-11,-8,-1
54550018,-59,49,2034,-11,-8,-2
54570007,-59,46,2033,-10,-8,-3
54589996,-57,43,2035,-10,-8,-3
54609985,-59,48,2034,-11,-8,-3
54629974,-58,50,2036,-11,-8,-2
54649963,-59,47,2034,-10,-8,-3
54669952,-61,47,2032,-10,-8,-3
54689941,-59,45,2035,-11,-9,-2
54709930,-59,44,2038,-12,-9,-2
54729919,-57,46,2036,-12,-9,-2
54749908,-60,48,2031,-10,-5,-3
54769897,-59,51,2037,-10,-7,-3
54789886,-152,269,2044,20,-59,148
54809875,21,-118,2019,-194,-100,526
54829864,-9,-70,2040,-29,19,176
54849853,-57,65,2039,35,45,-53
54869842,-66,54,2036,19,48,-6
54889831,-64,47,2039,6,25,2
54909820,-68,51,2038,-11,-7,-3
54929809,-64,49,2042,-26,-36,-3
54949798,-57,42,2035,-34,-49,-2
54969787,-49,34,2033,-31,-43,-2
54989776,-48,37,2030,-14,-15,-2
55009765,-53,39,2037,2,15,-3
55029754,-59,45,2039,4,18,-2
55049743,-61,46,2036,-3,6,-2
55069732,-62,42,2036,-11,-8,-3
55089721,-57,47,2035,-17,-20,-3
55109710,-56,43,2034,-19,-24,-2
55129699,-51,41,2037,-18,-20,-2
55149688,-56,40,2037,-11,-7,-3
55169677,-57,41,2032,-6,0,-4
55189666,-54,43,2037,-7,1,-3
55209655,-55,41,2035,-10,-5,-2
55229644,-59,43,2037,-14,-11,-3
55249633,-56,41,2035,-13,-11,-2
55269622,-58,39,2039,-12,-8,-3
55289611,-54,43,2037,-10,-8,-3
55309600,-56,40,2037,-10,-6,-4
55329589,-57,45,2038,-10,-7,-3
55349578,-53,40,2037,-12,-8,-2
55369567,-55,41,2035,-12,-8,-3
55389556,-59,39,2035,-12,-9,-3
55409545,-57,43,2035,-11,-7,-2
55429534,-55,45,2038,-10,-6,-2
55449523,-57,41,2037,-10,-6,-2
55469512,-58,43,2039,-10,-7,-3
55489501,-58,43,2035,-11,-8,-2
55509490,-58,42,2037,-11,-8,-2
55529479,-56,42,2038,-11,-7,-2
55549468,-58,43,2036,-11,-7,-3
55569458,-58,42,2037,-11,-8,-2
55589447,-58,43,2036,-10,-8,-2
55609436,-56,42,2035,-11,-6,-3
55629425,-57,40,2038,-12,-8,-2
55649414,-57,41,2040,-12,-8,-3
55669403,-56,44,2036,-10,-7,-3
55689392,-56,45,2038,-10,-7,-4
55709381,-57,40,2034,-10,-7,-3
55729370,-60,39,2040,-11,-7,-2
55749359,-59,43,2040,-10,-8,-2
55769348,-57,41,2035,-11,-7,-2
55789337,-58,40,2036,-11,-7,-2
55809326,-57,41,2038,-10,-7,-2
55829315,-59,42,2038,-10,-8,-2
55849304,-58,43,2037,-10,-7,-3
55869293,-58,40,2036,-11,-7,-2
55889282,-58,39,2034,-11,-8,-2
55909271,-57,44,2034,-11,-8,-3
55929260,-56,42,2036,-11,-8,-3
55949249,-58,45,2034,-12,-7,-1
55969238,-58,41,2036,-11,-8,-2
55989227,-58,43,2037,-11,-8,-3
56009216,-58,45,2037,-11,-8,-3
56029205,-56,40,2037,-11,-8,-2
56049194,-55,41,2039,-11,-7,-2
56069183,-54,42,2035,-10,-8,-3
56089172,-55,41,2033,-11,-7,-2
56109161,-56,43,2033,-11,-8,-2
56129150,-54,43,2034,-10,-7,-3
56149139,-52,44,2032,-11,-7,-3
56169128,-57,45,2036,-11,-7,-3
56189117,-57,45,2036,-11,-6,-3
56209106,-56,43,2033,-12,-8,-2
56229095,-54,42,2036,-11,-8,-3
56249084,-55,42,2034,-10,-8,-3
56269073,-57,46,2039,-11,-8,-2
56289062,-55,42,2039,-11,-8,-3
56309051,-58,44,2034,-10,-8,-2
56329040,-57,44,2032,-11,-8,-2
56349029,-53,41,2035,-11,-8,-2
56369018,-55,41,2032,-11,-8,-2
56389007,-59,43,2035,-10,-8,-3
56408996,-57,44,2038,-10,-8,-4
56428985,-58,40,2037,-9,-8,-2
56448974,-54,40,2034,-10,-7,-1
56468963,-55,38,2037,-11,-7,-3
56488952,-59,44,2037,-11,-7,-3
56508941,-56,46,2036,-10,-7,-3
56528930,-54,42,2038,-10,-7,-3
56548919,-55,43,2034,-10,-6,-2
56568908,-56,38,2035,-10,-7,-2
56588897,-53,42,2036,-10,-6,-2
56608886,-53,45,2035,-10,-8,-3
56628875,-55,42,2034,-10,-7,-3
56648864,-54,41,2034,-11,-7,-2
56668853,-54,41,2035,-11,-8,-3
56688842,-57,40,2037,-10,-8,-3
56708831,-57,42,2036,-10,-8,-3
56728820,-54,40,2028,-11,-7,-2
56748809,-56,44,2035,-11,-8,-2
56768798,-56,46,2035,-10,-8,-2
56788787,-58,43,2033,-10,-8,-3
56808776,-55,42,2033,-11,-8,-2
56828765,-55,42,2034,-11,-8,-2
56848754,-56,43,2035,-11,-7,-3
56868743,-57,44,2033,-11,-7,-2
56888732,-58,41,2036,-10,-7,-2
56908721,-57,43,2035,-10,-8,-3
56928710,-55,46,2034,-10,-8,-3
56948699,-54,40,2034,-11,-8,-3
56968688,-55,39,2034,-12,-8,-2
56988677,-58,42,2032,-11,-7,-2
57008666,-58,42,2032,-10,-7,-4
57028656,-55,40,2033,-10,-7,-4
57048645,-56,42,2037,-11,-8,-4
57068634,-56,42,2037,-10,-7,-2
57088623,-54,40,2033,-10,-6,-2
57108612,-57,41,2036,-11,-7,-2
57128601,-56,40,2032,-10,-9,-2
57148590,-56,38,2036,-11,-8,-3
57168579,-56,41,2035,-12,-8,-3
57188568,-56,44,2030,-11,-8,-2
57208557,-58,39,2036,-10,-8,-2
57228546,-56,43,2037,-11,-8,-2
57248535,-55,44,2032,-9,-8,-3
57268524,-58,44,2037,-10,-6,-3
57288513,-58,45,2040,-11,-8,-3
57308502,-57,42,2037,-11,-8,-4
57328491,-55,43,2034,-10,-7,-3
57348480,-54,42,2033,-11,-7,-3
57368469,-56,45,2034,-12,-7,-3
57388458,-55,45,2038,-11,-8,-2
57408447,-56,44,2035,-11,-7,-3
57428436,-57,44,2036,-11,-8,-4
57448425,-55,41,2033,-9,-7,-3
57468414,-55,43,2034,-11,-6,-3
57488403,-55,43,2040,-10,-7,-3
57508392,-57,49,2035,-10,-9,-2
57528381,-56,45,2038,-11,-8,-2
57548370,-56,42,2037,-11,-7,-2
57568359,-55,40,2037,-11,-7,-3
57588348,-57,42,2034,-10,-7,-2
57608337,-56,45,2035,-11,-7,-3
57628326,-56,43,2036,-11,-9,-3
57648315,-55,39,2032,-11,-8,-3
57668304,-57,41,2034,-11,-7,-2
57688293,-58,42,2036,-11,-7,-2
57708282,-56,42,2041,-10,-7,-3
57728271,-58,37,2036,-10,-9,-2
57748260,-55,40,2036,-11,-8,-3
57768249,-52,42,2038,-12,-7,-3
57788238,-56,40,2038,-11,-7,-4
57808227,-56,43,2037,-11,-7,-4
57828216,-54,40,2032,-11,-8,-4
57848205,-56,42,2037,-11,-7,-3
57868194,-55,41,2037,-11,-7,-3
57888183,-54,41,2035,-10,-7,-2
57908172,-57,43,2034,-10,-7,-3
57928161,-58,42,2036,-11,-8,-2
57948150,-58,39,2037,-10,-7,-3
57968139,-55,38,2033,-11,-8,-2
57988128,-55,42,2034,-12,-7,-2
58008117,-56,46,2034,-11,-8,-3
58028106,-55,42,2036,-10,-7,-1
58048095,-54,45,2036,-11,-8,-3
58068084,-56,39,2037,-11,-7,-2
58088073,-57,41,2034,-10,-7,-3
58108062,-55,46,2035,-12,-8,-3
58128051,-57,44,2037,-11,-7,-2
58148040,-58,43,2036,-11,-8,-3
58168029,-55,45,2037,-11,-8,-3
58188018,-57,45,2035,-11,-8,-3
58208007,-57,42,2036,-11,-8,-2
58227996,-57,41,2037,-10,-8,-1
58247985,-56,42,2040,-11,-7,-2
58267974,-57,47,2037,-11,-8,-2
58287963,-56,46,2036,-11,-8,-4
58307952,-57,42,2039,-10,-8,-4
58327941,-56,45,2039,-10,-8,-2
58347930,-56,45,2035,-10,-8,-3
58367919,-55,41,2037,-12,-7,-3
58387908,-55,43,2036,-12,-8,-3
58407897,-56,46,2037,-12,-8,-2
58427886,-57,39,2038,-11,-8,-3
58447875,-56,44,2034,-10,-8,-3
58467864,-56,42,2030,-10,-8,-3
58487854,-54,41,2036,-10,-9,-2
58507843,-53,37,2037,-10,-7,-2
58527832,-54,40,2036,-10,-7,-2
58547821,-57,44,2036,-10,-8,-2
58567810,-58,41,2036,-10,-7,-3
58587799,-58,41,2032,-12,-7,-3
58607788,-57,43,2038,-11,-7,-3
58627777,-57,43,2037,-11,-8,-3
58647766,-55,42,2039,-11,-9,-2
58667755,-56,41,2035,-12,-8,-3
58687744,-55,40,2033,-10,-8,-2
58707733,-58,45,2036,-10,-7,-2
58727722,-56,41,2041,-11,-8,-3
58747711,-55,41,2035,-12,-8,-3
58767700,-56,44,2035,-11,-8,-3
58787689,-57,41,2036,-11,-8,-2
58807678,-58,44,2043,-10,-7,-3
58827667,-56,42,2036,-11,-8,-3
58847656,-58,40,2032,-10,-7,-3
58867645,-57,45,2038,-9,-7,-2
58887634,-56,44,2037,-11,-8,-3
58907623,-57,43,2037,-11,-8,-3
58927612,-56,45,2037,-11,-6,-2
58947601,-58,43,2035,-11,-7,-2
58967590,-57,42,2038,-11,-8,-3
58987579,-54,42,2033,-11,-7,-3
59007568,-58,43,2035,-11,-8,-3
59027557,-57,43,2035,-11,-7,-3
59047546,-57,42,2040,-11,-7,-2
59067535,-57,42,2037,-11,-7,-3
59087524,-54,42,2035,-11,-8,-2
59107513,-54,40,2038,-11,-8,-2
59127502,-57,43,2035,-10,-8,-2
59147491,-57,41,2037,-10,-8,-2
59167480,-59,43,2040,-10,-8,-2
59187469,-57,39,2035,-11,-6,-2
59207458,-57,40,2033,-11,-6,-2
59227447,-56,39,2037,-11,-8,-2
59247436,-55,42,2037,-11,-8,-2
59267425,-55,42,2037,-11,-8,-3
59287414,-58,41,2035,-11,-7,-3
59307403,-57,42,2031,-11,-8,-2
59327392,-56,40,2033,-10,-7,-3
59347381,-56,40,2037,-9,-8,-3
59367370,-58,43,2035,-10,-8,-3
59387359,-58,41,2034,-10,-8,-3
59407348,-57,42,2034,-10,-7,-2
59427337,-56,42,2040,-11,-7,-3
59447326,-56,43,2038,-11,-7,-3
59467315,-57,42,2032,-10,-8,-2
59487304,-56,43,2034,-12,-8,-3
59507293,-54,42,2038,-11,-8,-3
59527282,-54,40,2036,-11,-8,-3
59547271,-57,44,2032,-11,-7,-3
59567260,-56,41,2037,-10,-7,-2
59587249,-56,45,2041,-10,-7,-3
59607238,-56,39,2035,-11,-7,-3
59627227,-55,43,2033,-11,-7,-3
59647216,-57,43,2038,-11,-8,-2
59667205,-58,40,2036,-9,-7,-2
59687194,-56,43,2039,-10,-8,-2
59707183,-57,43,2037,-11,-8,-2
59727172,-56,44,2039,-11,-7,-3
59747161,-53,43,2035,-11,-7,-3
59767150,-54,42,2033,-10,-7,-3
59787139,-56,41,2039,-10,-7,-1
59807128,-55,42,2037,-11,-7,-3
59827117,-59,43,2036,-11,-8,-3
59847106,-54,41,2033,-11,-7,-3
59867095,-52,44,2035,-10,-8,-2
59887084,-54,43,2037,-9,-7,-1
59907073,-59,42,2034,-10,-8,-3
59927062,-54,44,2036,-11,-8,-4
59947052,-56,45,2035,-10,-6,-2
59967041,-55,38,2034,-11,-9,-3
59987030,-55,42,2036,-11,-9,-3
60007019,-58,44,2037,-10,-6,-3
60027008,-55,41,2034,-10,-7,-2
60046997,-56,44,2034,-11,-7,-2
60066986,-57,46,2031,-11,-6,-2
60086975,-55,44,2037,-11,-8,-2
60106964,-54,41,2038,-11,-8,-2
60126953,-54,41,2035,-10,-7,-2
60146942,-57,38,2036,-10,-8,-2
60166931,-55,39,2039,-11,-7,-3
60186920,-56,44,2034,-12,-8,-3
60206909,-56,42,2031,-11,-8,-2
60226898,-57,41,2039,-10,-7,-3
60246887,-59,41,2038,-11,-8,-2
60266876,-54,37,2036,-11,-8,-2
60286865,-55,38,2041,-11,-7,-2
60306854,-55,43,2036,-11,-7,-2
60326843,-56,41,2035,-11,-7,-3
60346832,-56,39,2035,-10,-6,-2
60366821,-57,45,2038,-10,-7,-2
60386810,-55,44,2038,-12,-8,-2
60406799,-57,42,2034,-11,-7,-2
60426788,-59,44,2034,-10,-8,-2
60446777,-56,41,2037,-11,-8,-3
60466766,-57,42,2037,-10,-7,-3
60486755,-57,44,2037,-10,-7,-2
60506744,-57,40,2035,-11,-9,-3
60526733,-57,40,2034,-11,-8,-3
60546722,-57,39,2035,-11,-7,-3
60566711,-56,42,2039,-10,-9,-3
60586700,-57,38,2039,-10,-8,-2
60606689,-56,41,2037,-11,-8,-3
60626678,-55,40,2037,-11,-7,-3
60646667,-56,48,2036,-11,-8,-3
60666656,-57,42,2034,-9,-8,-2
60686645,-58,40,2032,-10,-7,-2
60706634,-57,41,2041,-11,-8,-3
60726623,-57,43,2038,-10,-8,-3
60746612,-54,42,2036,-11,-8,-2
60766601,-55,41,2034,-11,-7,-3
60786590,-58,44,2036,-12,-8,-3
60806579,-57,44,2035,-12,-8,-2
60826568,-57,41,2033,-11,-7,-2
60846557,-57,42,2034,-10,-8,-3
60866546,-58,45,2034,-11,-8,-3
60886535,-58,43,2040,-10,-8,-3
60906524,-56,38,2037,-10,-7,-2
60926513,-57,36,2032,-11,-8,-3
60946502,-56,43,2033,-11,-8,-3
60966491,-57,46,2037,-11,-8,-2
60986480,-59,40,2038,-12,-7,-2
61006469,-56,43,2039,-11,-8,-4
61026458,-56,40,2036,-11,-8,-2
61046447,-56,43,2034,-11,-9,-2
61066436,-54,42,2037,-12,-9,-3
61086425,-56,38,2042,-10,-6,-2
61106414,-55,41,2038,-10,-7,-3
61126403,-53,41,2042,-11,-8,-2
61146392,-57,42,2034,-11,-8,-3
61166381,-55,41,2035,-11,-8,-3
61186370,-56,46,2039,-11,-7,-2
61206359,-58,45,2036,-10,-7,-2
61226348,-53,40,2033,-11,-8,-3
61246337,-54,45,2037,-11,-7,-3
61266326,-56,46,2034,-11,-7,-2
61286315,-54,43,2036,-10,-7,-3
61306304,-55,41,2038,-11,-7,-3
61326293,-58,41,2037,-11,-8,-3
61346282,-56,41,2041,-11,-8,-3
61366271,-56,41,2037,-11,-7,-3
61386260,-57,41,2033,-10,-7,-2
61406250,-59,42,2037,-10,-8,-3
61426239,-58,44,2037,-10,-7,-3
61446228,-57,41,2035,-11,-7,-2
61466217,-57,40,2041,-12,-8,-2
61486206,-55,42,2037,-10,-8,-3
61506195,-58,41,2040,-10,-8,-2
61526184,-54,42,2038,-11,-8,-3
61546173,-54,41,2039,-11,-6,-2
61566162,-55,39,2034,-10,-8,-3
61586151,-53,44,2036,-11,-8,-2
61606140,-53,44,2037,-10,-7,-2
61626129,-56,45,2034,-11,-8,-2
61646118,-56,38,2036,-11,-8,-2
61666107,-57,43,2037,-10,-7,-3
61686096,-55,44,2037,-11,-7,-3
61706085,-57,46,2037,-11,-7,-2
61726074,-59,46,2039,-10,-8,-3
61746063,-55,42,2035,-10,-8,-3
61766052,-54,43,2036,-11,-7,-2
61786041,-56,40,2037,-12,-7,-2
61806030,-57,42,2037,-11,-7,-4
61826019,-54,42,2036,-10,-8,-3
61846008,-56,40,2035,-11,-8,-2
61865997,-57,40,2037,-11,-8,-3
61885986,-55,44,2037,-11,-8,-3
61905975,-56,44,2039,-11,-8,-2
61925964,-56,41,2035,-12,-8,-2
61945953,-57,45,2033,-11,-8,-2
61965942,-56,42,2034,-10,-7,-2
61985931,-53,46,2034,-11,-7,-2
62005920,-56,45,2038,-11,-8,-3
62025909,-56,41,2036,-11,-8,-3
62045898,-54,41,2038,-10,-9,-3
62065887,-57,42,2035,-10,-10,-3
62085876,-57,40,2032,-11,-8,-3
62105865,-58,39,2035,-11,-7,-2
62125854,-55,46,2037,-11,-8,-2
62145843,-59,43,2034,-10,-8,-3
62165832,-59,38,2036,-11,-7,-3
62185821,-54,43,2035,-11,-8,-2
62205810,-58,44,2039,-11,-8,-2
62225799,-59,43,2035,-11,-8,-3
62245788,-56,40,2037,-11,-8,-3
62265777,-57,41,2038,-11,-7,-3
62285766,-54,40,2034,-12,-7,-3
62305755,-55,44,2041,-11,-8,-3
62325744,-59,42,2037,-10,-7,-2
62345733,-58,43,2034,-10,-8,-2
62365722,-59,44,2033,-9,-8,-2
62385711,-56,42,2039,-11,-7,-2
62405700,-56,42,2037,-12,-7,-3
62425689,-55,42,2034,-11,-7,-3
62445678,-57,41,2032,-10,-9,-3
62465667,-55,41,2037,-9,-7,-2
62485656,-56,44,2038,-10,-7,-2
62505645,-57,42,2035,-10,-8,-1
62525634,-55,44,2034,-9,-8,-2
62545623,-55,42,2031,-10,-8,-2
62565612,-57,40,2035,-12,-8,-2
62585601,-58,38,2039,-11,-6,-2
62605590,-56,41,2038,-11,-7,-3
62625579,-57,41,2033,-10,-9,-3
62645568,-57,42,2037,-10,-8,-3
62665557,-56,42,2034,-11,-9,-3
62685546,-56,42,2037,-11,-8,-2
62705535,-56,42,2036,-11,-7,-2
62725524,-56,42,2037,-12,-7,-2
62745513,-56,44,2038,-12,-7,-2
62765502,-55,41,2036,-11,-7,-3
62785491,-56,42,2035,-11,-7,-3
62805480,-55,42,2039,-10,-7,-3
62825469,-56,39,2035,-10,-7,-3
62845458,-58,40,2039,-10,-8,-3
62865447,-55,43,2038,-11,-7,-2
62885437,-56,40,2035,-11,-6,-1
62905426,-56,42,2036,-11,-7,-3
62925415,-56,44,2037,-10,-8,-2
62945404,-57,38,2036,-11,-7,-2
62965393,-55,37,2033,-11,-8,-3
62985382,-56,40,2039,-10,-8,-3
63005371,-57,45,2037,-10,-8,-3
63025360,-57,42,2036,-11,-8,-3
63045349,-56,41,2039,-12,-8,-4
63065338,-54,41,2039,-10,-7,-3
63085327,-58,39,2037,-10,-7,-3
63105316,-55,41,2035,-10,-8,-3
63125305,-55,44,2032,-10,-7,-3
63145294,-61,45,2037,-11,-8,-3
63165283,-54,44,2032,-10,-8,-2
63185272,-54,41,2035,-10,-7,-2
63205261,-58,43,2038,-11,-8,-2
63225250,-57,42,2035,-11,-7,-3
63245239,-57,44,2039,-11,-7,-3
63265228,-56,42,2041,-11,-8,-2
63285217,-56,44,2036,-11,-8,-2
63305206,-57,42,2032,-11,-8,-3
63325195,-56,46,2033,-11,-8,-3
63345184,-58,41,2031,-11,-7,-3
63365173,-56,43,2038,-12,-8,-3
63385162,-56,43,2036,-11,-8,-3
63405151,-53,43,2037,-11,-7,-2
63425140,-56,39,2034,-11,-7,-3
63445129,-57,40,2036,-10,-7,-3
63465118,-57,45,2035,-11,-8,-2
63485107,-58,44,2035,-11,-9,-2
63505096,-57,43,2033,-11,-7,-2
63525085,-56,44,2036,-11,-7,-2
63545074,-54,41,2038,-11,-7,-2
63565063,-54,43,2035,-11,-7,-3
63585052,-57,43,2037,-10,-8,-3
63605041,-57,42,2036,-11,-8,-3
63625030,-58,38,2031,-11,-7,-3
63645019,-57,37,2033,-11,-8,-2
63665008,-55,41,2033,-11,-9,-2
63684997,-57,42,2034,-11,-8,-1
63704986,-57,41,2040,-10,-7,-2
63724975,-55,40,2036,-12,-9,-3
63744964,-57,42,2036,-11,-7,-3
63764953,-56,43,2036,-11,-8,-3
63784942,-54,42,2036,-11,-7,-3
63804931,-56,45,2038,-12,-7,-3
63824920,-56,42,2038,-12,-8,-3
63844909,-59,41,2037,-10,-8,-3
63864898,-58,44,2035,-10,-7,-3
63884887,-57,47,2036,-11,-7,-3
63904876,-57,41,2032,-10,-8,-2
63924865,-58,41,2036,-11,-8,-2
63944854,-59,42,2040,-12,-7,-3
63964843,-57,41,2035,-10,-8,-2
63984832,-55,42,2033,-10,-7,-2
64004821,-54,41,2035,-10,-8,-2
64024810,-56,38,2035,-11,-8,-2
64044799,-58,41,2039,-10,-7,-2
64064788,-59,39,2038,-10,-7,-3
64084777,-56,44,2034,-11,-8,-3
64104766,-53,43,2037,-12,-7,-3
64124755,-54,41,2036,-11,-6,-3
64144744,-58,40,2038,-11,-7,-3
64164733,-58,41,2034,-10,-7,-2
64184722,-54,44,2035,-11,-7,-1
64204711,-57,43,2036,-11,-7,-2
64224700,-56,40,2038,-10,-8,-3
64244689,-57,39,2036,-10,-6,-1
64264678,-54,45,2036,-11,-7,-3
64284667,-54,41,2039,-10,-8,-4
64304656,-55,43,2039,-11,-8,-3
64324645,-56,46,2036,-11,-8,-3
64344635,-54,42,2036,-12,-8,-2
64364624,-57,45,2036,-12,-8,-3
64384613,-55,40,2039,-11,-9,-3
64404602,-57,41,2037,-11,-8,-2
64424591,-50,42,2036,-11,-7,-2
64444580,-55,43,2037,-10,-7,-2
64464569,-60,43,2034,-11,-8,-2
64484558,-55,43,2034,-12,-7,-3
64504547,-56,45,2041,-10,-6,-4
64524536,-57,41,2040,-12,-9,-2
64544525,-56,41,2038,-12,-8,-2
64564514,-56,42,2035,-11,-7,-3
64584503,-56,46,2037,-11,-8,-3
64604492,-60,41,2033,-11,-7,-3
64624481,-57,44,2034,-11,-8,-3
64644470,-57,44,2032,-10,-8,-2
64664459,-55,40,2039,-12,-6,-2
64684448,-56,42,2040,-11,-6,-3
64704437,-56,41,2041,-11,-7,-3
64724426,-56,42,2037,-11,-8,-3
64744415,-55,44,2037,-10,-7,-2
64764404,-56,43,2037,-12,-8,-3
64784393,-55,41,2037,-12,-8,-3
64804382,-56,42,2038,-10,-8,-3
64824371,-58,43,2034,-10,-7,-2
64844360,-55,43,2034,-10,-7,-2
64864349,-58,43,2037,-11,-7,-3
64884338,-57,41,2036,-11,-6,-3
64904327,-53,40,2033,-9,-7,-3
64924316,-54,47,2036,-10,-6,-3
64944305,-57,43,2035,-9,-8,-3
64964294,-59,40,2038,-10,-7,-3
64984283,-56,42,2038,-12,-8,-3
65004272,-53,42,2036,-11,-8,-3
65024261,-58,42,2035,-10,-8,-2
65044250,-54,42,2034,-10,-7,-3
65064239,-55,43,2038,-10,-8,-4
65084228,-57,43,2038,-11,-8,-3
65104217,-54,45,2036,-11,-8,-2
65124206,-57,44,2038,-11,-8,-2
65144195,-57,44,2038,-12,-8,-2
65164184,-58,41,2039,-12,-8,-2
65184173,-58,41,2036,-12,-8,-2
65204162,-54,41,2036,-11,-8,-2
65224151,-57,40,2037,-10,-7,-3
65244140,-55,45,2039,-11,-7,-3
65264129,-52,40,2037,-10,-8,-3
65284118,-56,40,2035,-11,-7,-3
65304107,-58,44,2036,-10,-6,-3
65324096,-55,42,2035,-11,-8,-3
65344085,-59,42,2033,-11,-8,-2
65364074,-58,43,2037,-11,-7,-2
65384063,-55,41,2036,-11,-8,-3
65404052,-58,39,2033,-9,-7,-2
65424041,-58,39,2036,-11,-7,-2
65444030,-54,40,2035,-11,-8,-3
65464019,-57,39,2034,-12,-8,-2
65484008,-60,42,2040,-11,-7,-2
65503997,-57,43,2040,-12,-6,-3
65523986,-55,46,2038,-11,-8,-3
65543975,-58,41,2038,-10,-9,-2
65563964,-54,39,2038,-13,-9,-3
65583953,-57,41,2038,-11,-7,-2
65603942,-54,44,2037,-10,-7,-2
65623931,-55,41,2035,-12,-8,-3
65643920,-58,41,2035,-10,-6,-3
65663909,-57,41,2039,-10,-7,-2
65683898,-60,38,2038,-10,-9,-2
65703887,-58,43,2038,-10,-8,-2
65723876,-58,40,2037,-10,-8,-3
65743865,-56,45,2036,-10,-7,-3
65763854,-57,42,2042,-10,-7,-2
65783843,-53,40,2036,-11,-7,-2
65803833,-52,39,2036,-11,-8,-3
65823822,-56,42,2035,-10,-7,-3
65843811,-58,42,2039,-10,-7,-3
65863800,-58,41,2034,-11,-7,-2
65883789,-56,44,2035,-10,-7,-2
65903778,-57,41,2034,-11,-8,-3
65923767,-58,42,2036,-11,-8,-2
65943756,-54,45,2036,-10,-8,-2
65963745,-57,45,2038,-10,-8,-2
65983734,-58,44,2038,-10,-7,-2
66003723,-56,40,2032,-11,-8,-2
66023712,-51,44,2033,-12,-7,-3
66043701,-56,41,2035,-11,-6,-3
66063690,-60,44,2037,-10,-7,-2
66083679,-56,43,2040,-11,-8,-2
66103668,-56,43,2034,-10,-8,-3
66123657,-57,42,2035,-11,-8,-2
66143646,-52,39,2041,-11,-8,-3
66163635,-57,44,2039,-10,-7,-3
66183624,-55,40,2037,-11,-6,-3
66203613,-54,40,2032,-11,-8,-3
66223602,-56,44,2034,-10,-8,-2
66243591,-57,41,2035,-10,-8,-2
66263580,-55,43,2039,-11,-8,-2
66283569,-57,42,2037,-11,-7,-3
66303558,-56,42,2033,-11,-8,-3
66323547,-55,43,2039,-11,-8,-3
66343536,-56,44,2037,-10,-8,-3
66363525,-57,45,2037,-10,-8,-3
66383514,-55,45,2038,-12,-7,-2
66403503,-56,40,2037,-10,-8,-3
66423492,-55,41,2038,-9,-9,-3
66443481,-57,45,2035,-10,-8,-3
66463470,-56,44,2033,-11,-8,-3
66483459,-55,45,2036,-10,-7,-3
66503448,-56,42,2039,-11,-7,-3
66523437,-54,43,2035,-11,-8,-2
66543426,-53,42,2036,-10,-8,-3
66563415,-54,43,2038,-9,-7,-3
66583404,-52,44,2038,-10,-7,-3
66603393,-57,43,2037,-10,-7,-2
66623382,-55,42,2032,-10,-8,-2
66643371,-54,42,2036,-11,-8,-3
66663360,-56,42,2036,-11,-7,-3
66683349,-58,45,2039,-11,-7,-3
66703338,-55,42,2037,-10,-7,-3
66723327,-54,41,2039,-10,-9,-2
66743316,-55,40,2039,-11,-8,-3
66763305,-58,45,2038,-11,-7,-2
66783294,-56,43,2035,-10,-8,-2
66803283,-55,44,2035,-11,-8,-2
66823272,-57,41,2033,-10,-8,-3
66843261,-55,43,2034,-10,-8,-2
66863250,-53,41,2032,-12,-8,-3
66883239,-56,43,2034,-11,-8,-4
66903228,-55,37,2038,-11,-7,-2
66923217,-56,43,2038,-11,-7,-2
66943206,-56,43,2036,-10,-8,-1
66963195,-56,40,2037,-11,-8,-2
66983184,-57,40,2038,-11,-8,-3
67003173,-58,41,2035,-10,-8,-2
67023162,-57,42,2038,-10,-8,-3
67043151,-56,42,2041,-12,-8,-3
67063140,-56,41,2040,-10,-8,-3
67083129,-55,42,2037,-10,-7,-3
67103118,-53,42,2038,-11,-8,-2
67123107,-55,41,2037,-10,-8,-3
67143096,-55,39,2035,-10,-8,-2
67163085,-56,41,2036,-11,-8,-3
67183074,-57,46,2031,-11,-7,-3
67203063,-56,41,2031,-11,-8,-2
67223052,-55,36,2040,-10,-9,-2
67243041,-56,39,2038,-11,-7,-2
67263031,-56,42,2037,-11,-7,-2
67283020,-55,41,2039,-11,-8,-2
67303009,-56,43,2034,-10,-7,-3
67322998,-56,48,2035,-11,-7,-3
67342987,-56,45,2036,-10,-8,-2
67362976,-56,44,2038,-11,-6,-3
67382965,-56,43,2035,-12,-8,-2
67402954,-54,37,2036,-11,-8,-2
67422943,-55,42,2036,-11,-8,-3
67442932,-58,41,2037,-10,-8,-2
67462921,-55,42,2035,-10,-8,-3
67482910,-54,43,2038,-11,-7,-4
67502899,-57,43,2040,-10,-8,-2
67522888,-54,41,2040,-10,-8,-3
67542877,-55,39,2037,-11,-8,-3
67562866,-56,39,2033,-12,-7,-2
67582855,-58,43,2031,-10,-8,-2
67602844,-56,45,2033,-10,-7,-3
67622833,-56,44,2036,-11,-7,-3
67642822,-57,41,2035,-11,-7,-3
67662811,-56,42,2038,-10,-7,-3
67682800,-54,44,2034,-10,-7,-3
67702789,-55,39,2037,-12,-8,-4
67722778,-57,41,2035,-11,-8,-3
67742767,-57,38,2034,-10,-8,-2
67762756,-53,43,2037,-11,-8,-2
67782745,-54,41,2036,-10,-8,-3
67802734,-56,44,2034,-10,-7,-2
67822723,-55,45,2034,-10,-7,-3
67842712,-56,41,2035,-10,-7,-3
67862701,-55,38,2036,-10,-7,-3
67882690,-56,39,2035,-11,-8,-3
67902679,-54,41,2036,-11,-8,-3
67922668,-58,43,2036,-11,-8,-2
67942657,-57,40,2032,-10,-7,-2
67962646,-57,40,2038,-11,-8,-2
67982635,-57,39,2037,-11,-9,-3
68002624,-56,42,2037,-11,-7,-3
68022613,-54,46,2040,-11,-7,-3
68042602,-56,44,2034,-11,-7,-3
68062591,-54,45,2032,-10,-8,-3
68082580,-57,43,2035,-12,-7,-3
68102569,-57,39,2036,-12,-8,-3
68122558,-58,44,2036,-11,-8,-3
68142547,-57,45,2039,-11,-8,-3
68162536,-56,46,2038,-10,-9,-3
68182525,-58,43,2038,-10,-7,-3
68202514,-59,38,2036,-10,-7,-3
68222503,-54,44,2036,-11,-8,-3
68242492,-53,42,2037,-9,-8,-4
68262481,-56,45,2037,-10,-8,-3
68282470,-55,44,2034,-10,-8,-3
68302459,-57,42,2035,-11,-8,-3
68322448,-57,41,2037,-9,-7,-2
68342437,-56,42,2035,-11,-7,-2
68362426,-54,43,2033,-10,-7,-3
68382415,-55,46,2038,-11,-7,-3
68402404,-59,40,2036,-10,-6,-3
68422393,-57,40,2036,-11,-8,-2
68442382,-57,44,2038,-11,-7,-2
68462371,-59,40,2037,-11,-8,-3
68482360,-56,40,2035,-11,-8,-4
68502349,-55,44,2034,-11,-7,-3
68522338,-55,43,2035,-11,-8,-3
68542327,-56,43,2040,-10,-7,-2
68562316,-56,41,2042,-11,-8,-2
68582305,-56,43,2039,-10,-7,-3
68602294,-54,42,2036,-10,-6,-3
68622283,-57,40,2039,-11,-7,-4
68642272,-57,41,2036,-11,-9,-3
68662261,-55,44,2039,-11,-9,-3
68682250,-57,44,2036,-10,-7,-3
68702239,-58,45,2037,-10,-8,-2
68722229,-54,39,2030,-11,-7,-3
68742218,-56,41,2032,-11,-7,-2
68762207,-57,41,2039,-11,-8,-3
68782196,-57,45,2039,-10,-7,-2
68802185,-57,42,2038,-10,-7,-2
68822174,-57,38,2035,-11,-8,-2
68842163,-58,41,2034,-11,-8,-2
68862152,-54,40,2035,-10,-8,-3
68882141,-57,40,2033,-11,-7,-3
68902130,-59,45,2035,-11,-8,-4
68922119,-55,44,2037,-11,-9,-3
68942108,-56,41,2037,-10,-7,-2
68962097,-56,41,2040,-11,-8,-3
68982086,-55,40,2037,-10,-8,-3
69002075,-58,42,2036,-11,-6,-3
69022064,-55,42,2039,-11,-8,-3
69042053,-54,43,2037,-10,-8,-1
69062042,-59,49,2036,-11,-8,-3
69082031,-56,42,2036,-11,-8,-3
69102020,-52,42,2033,-10,-9,-3
69122009,-57,43,2035,-11,-7,-3
69141998,-58,42,2038,-11,-7,-2
69161987,-54,43,2036,-11,-9,-2
69181976,-55,41,2035,-11,-8,-2
69201965,-56,42,2036,-11,-8,-2
69221954,-57,42,2036,-10,-7,-3
69241943,-57,40,2040,-10,-7,-2
69261932,-57,40,2037,-11,-8,-3
69281921,-56,44,2037,-11,-8,-2
69301910,-56,43,2038,-10,-7,-3
69321899,-56,42,2037,-11,-7,-3
69341888,-56,43,2036,-11,-7,-3
69361877,-57,45,2038,-11,-7,-3
69381866,-57,47,2037,-10,-7,-3
69401855,-55,43,2037,-11,-8,-2
69421844,-56,40,2041,-11,-7,-2
69441833,-59,42,2034,-10,-7,-2
69461822,-55,43,2033,-9,-8,-2
69481811,-54,45,2036,-11,-8,-3
69501800,-55,44,2041,-12,-7,-2
69521789,-55,44,2036,-12,-8,-3
69541778,-56,39,2038,-11,-7,-3
69561767,-56,40,2038,-11,-8,-3
69581756,-55,40,2038,-11,-7,-4
69601745,-57,40,2039,-11,-6,-3
69621734,-58,43,2036,-12,-7,-3
69641723,-57,43,2035,-10,-8,-3
69661712,-55,42,2038,-11,-7,-2
69681701,-60,44,2038,-11,-7,-2
69701690,-56,42,2038,-11,-8,-2
69721679,-56,42,2036,-12,-8,-3
69741668,-54,41,2034,-12,-6,-2
69761657,-55,43,2039,-10,-6,-2
69781646,-55,39,2039,-11,-8,-2
69801635,-56,39,2037,-11,-9,-2
69821624,-58,43,2039,-10,-7,-3
69841613,-57,43,2035,-10,-6,-4
69861602,-54,39,2035,-12,-8,-3
69881591,-53,43,2033,-11,-8,-2
69901580,-57,44,2035,-11,-7,-2
69921569,-56,41,2038,-12,-8,-2
69941558,-57,41,2038,-10,-7,-2
69961547,-56,43,2033,-10,-7,-2
69981536,-57,41,2032,-12,-9,-2
70001525,-55,44,2036,-10,-8,-3
70021514,-54,45,2032,-11,-7,-3
70041503,-55,41,2038,-12,-7,-3
70061492,-57,45,2038,-11,-8,-3
70081481,-59,43,2035,-9,-7,-3
70101470,-57,43,2039,-10,-8,-2
70121459,-53,43,2033,-11,-7,-2
70141448,-53,40,2037,-10,-7,-4
70161437,-54,41,2039,-10,-8,-3
70181427,-56,42,2035,-10,-8,-2
70201416,-57,43,2038,-11,-7,-2
70221405,-55,43,2036,-12,-8,-4
70241394,-56,43,2032,-11,-7,-4
70261383,-56,44,2035,-9,-7,-3
70281372,-54,44,2037,-10,-8,-3
70301361,-59,40,2037,-10,-7,-2
70321350,-55,42,2032,-11,-8,-2
70341339,-57,43,2035,-12,-8,-2
70361328,-56,41,2036,-10,-6,-2
70381317,-53,41,2032,-11,-8,-2
70401306,-57,43,2035,-11,-8,-3
70421295,-57,40,2033,-10,-7,-3
70441284,-57,41,2033,-10,-9,-2
70461273,-55,42,2034,-11,-8,-2
70481262,-54,42,2039,-11,-7,-3
70501251,-55,42,2039,-10,-8,-3
70521240,-56,41,2037,-10,-7,-2
70541229,-58,41,2037,-10,-7,-3
70561218,-55,42,2041,-11,-8,-3
70581207,-55,39,2039,-11,-7,-3
70601196,-55,39,2036,-10,-6,-2
70621185,-56,45,2035,-11,-8,-2
70641174,-56,46,2038,-10,-7,-2
70661163,-56,43,2034,-11,-8,-2
70681152,-58,41,2034,-11,-9,-3
70701141,-54,44,2036,-10,-7,-3
70721130,-57,45,2035,-10,-8,-2
70741119,-57,43,2040,-11,-9,-2
70761108,-55,42,2042,-11,-7,-2
70781097,-54,45,2036,-10,-6,-3
70801086,-54,36,2040,-12,-8,-2
70821075,-54,41,2038,-11,-8,-2
70841064,-57,43,2037,-10,-7,-3
70861053,-56,41,2036,-11,-8,-3
70881042,-56,40,2039,-11,-8,-3
70901031,-56,43,2035,-11,-6,-2
70921020,-55,42,2037,-11,-7,-1
70941009,-57,43,2040,-11,-8,-3
70960998,-58,45,2037,-11,-7,-3
70980987,-56,41,2036,-10,-8,-3
71000976,-57,43,2039,-11,-9,-2
71020965,-60,39,2035,-10,-7,-3
71040954,-54,41,2036,-13,-8,-3
71060943,-56,44,2038,-11,-7,-2
71080932,-55,43,2037,-9,-7,-2
71100921,-57,40,2039,-11,-8,-3
71120910,-55,42,2036,-11,-6,-2
71140899,-57,44,2035,-11,-7,-2
71160888,-56,41,2037,-10,-8,-2
71180877,-55,41,2037,-9,-7,-3
71200866,-58,44,2039,-10,-7,-3
71220855,-55,42,2038,-10,-8,-2
71240844,-59,41,2039,-11,-9,-3
71260833,-55,44,2036,-11,-7,-2
71280822,-54,45,2033,-10,-7,-2
71300811,-57,44,2033,-11,-7,-3
71320800,-55,44,2037,-11,-5,-2
71340789,-56,45,2038,-12,-7,-2
71360778,-55,43,2035,-12,-9,-2
71380767,-56,43,2035,-11,-8,-2
71400756,-56,45,2036,-10,-7,-2
71420745,-58,39,2037,-11,-9,-2
71440734,-54,41,2036,-11,-8,-3
71460723,-55,44,2038,-11,-6,-2
71480712,-56,39,2035,-11,-7,-3
71500701,-55,40,2035,-10,-8,-2
71520690,-54,42,2039,-11,-7,-2
71540679,-56,43,2039,-10,-8,-3
71560668,-56,45,2037,-10,-8,-2
71580657,-56,43,2036,-11,-8,-3
71600646,-58,42,2036,-10,-8,-3
71620635,-59,46,2038,-11,-7,-2
71640625,-58,43,2037,-11,-7,-2
71660614,-57,45,2034,-11,-8,-1
71680603,-56,44,2035,-10,-7,-3
71700592,-56,42,2036,-10,-8,-3
71720581,-55,41,2038,-10,-7,-3
71740570,-56,40,2032,-11,-9,-3
71760559,-58,38,2034,-12,-8,-3
71780548,-54,42,2033,-10,-7,-2
71800537,-54,45,2037,-10,-8,-3
71820526,-57,45,2035,-10,-8,-3
71840515,-54,45,2033,-10,-7,-2
71860504,-54,46,2037,-11,-7,-2
71880493,-59,43,2038,-11,-8,-2
71900482,-60,42,2032,-10,-7,-3
71920471,-56,39,2036,-11,-8,-3
71940460,-55,41,2037,-10,-7,-3
71960449,-57,44,2036,-10,-6,-3
71980438,-57,43,2030,-12,-10,-3
72000427,-56,44,2035,-9,-8,-3
72020416,-56,45,2038,-10,-6,-2
72040405,-55,41,2033,-11,-9,-2
72060394,-57,46,2034,-10,-8,-4
72080383,-56,44,2038,-11,-6,-4
72100372,-55,37,2038,-12,-8,-2
72120361,-55,41,2037,-10,-7,-3
72140350,-58,40,2034,-10,-7,-2
72160339,-56,42,2036,-11,-8,-2
72180328,-54,42,2036,-11,-7,-2
72200317,-58,45,2036,-10,-7,-2
72220306,-58,44,2033,-11,-8,-3
72240295,-56,45,2037,-10,-7,-2
72260284,-55,45,2039,-10,-6,-2
72280273,-56,40,2038,-11,-8,-2
72300262,-56,40,2035,-10,-8,-2
72320251,-58,43,2037,-9,-6,-2
72340240,-54,41,2039,-10,-7,-2
72360229,-55,40,2037,-11,-7,-2
72380218,-56,43,2036,-10,-6,-2
72400207,-56,43,2034,-11,-8,-2
72420196,-57,39,2035,-11,-9,-3
72440185,-56,36,2033,-10,-7,-2
72460174,-55,43,2036,-11,-8,-4
72480163,-56,40,2036,-10,-6,-2
72500152,-56,42,2034,-11,-8,-3
72520141,-56,40,2038,-11,-10,-2
72540130,-55,41,2038,-10,-7,-1
72560119,-54,38,2036,-12,-8,-3
72580108,-53,43,2035,-11,-8,-3
72600097,-55,45,2035,-10,-6,-3
72620086,-58,42,2035,-12,-7,-3
72640075,-57,42,2036,-12,-9,-3
72660064,-57,41,2032,-10,-7,-2
72680053,-53,45,2034,-10,-8,-2
72700042,-56,42,2040,-10,-8,-2
72720031,-58,41,2037,-9,-8,-2
72740020,-54,42,2035,-10,-9,-3
72760009,-56,41,2033,-12,-9,-3
72779998,-57,43,2039,-11,-7,-2
72799987,-56,43,2035,-10,-8,-3
72819976,-56,40,2034,-11,-9,-2
72839965,-56,41,2038,-11,-9,-3
72859954,-54,43,2039,-11,-8,-3
72879943,-56,43,2037,-11,-8,-3
72899932,-55,42,2035,-11,-7,-3
72919921,-56,43,2033,-11,-7,-2
72939910,-57,45,2036,-11,-9,-3
72959899,-57,42,2039,-11,-7,-3
72979888,-56,40,2032,-10,-7,-4
72999877,-54,39,2035,-12,-8,-3
73019866,-55,44,2034,-9,-7,-3
73039855,-60,42,2034,-10,-7,-3
73059844,-57,45,2039,-12,-9,-3
73079833,-54,43,2038,-10,-7,-2
73099822,-57,40,2040,-10,-5,-3
73119812,-52,42,2036,-12,-9,-3
73139801,-58,43,2042,-11,-8,-2
73159790,-58,40,2042,-11,-7,-2
73179779,-58,43,2033,-10,-9,-2
73199768,-57,32,2027,-12,-8,-2
73219757,-56,36,2035,-9,-7,-2
73239746,-57,29,2034,-12,-7,-3
73259735,-59,36,2036,-11,-8,-2
73279724,-59,36,2036,-12,-7,-3
73299713,-57,41,2034,-12,-7,-3
73319702,-62,27,2035,-10,-7,-3
73339691,-53,45,2038,-12,-8,-2
73359680,-59,30,2042,-11,-7,-3
73379669,-58,39,2035,-11,-7,-2
73399658,-58,38,2035,-12,-8,-3
73419647,-58,32,2034,-10,-7,-2
73439636,-55,43,2032,-10,-7,-2
73459625,-59,33,2035,-11,-9,-2
73479614,-50,46,2034,-11,-8,-1
73499603,-58,41,2036,-11,-8,-3
73519592,-61,38,2033,-11,-9,-2
73539581,-53,48,2038,-12,-7,-3
73559570,-58,37,2037,-11,-8,-3
73579559,-58,42,2038,-11,-8,-3
73599548,-58,40,2037,-11,-7,-3
73619537,-57,42,2035,-11,-8,-3
73639526,-54,46,2034,-11,-8,-2
73659515,-58,40,2036,-11,-6,-2
73679504,-56,44,2037,-11,-7,-2
73699493,-57,39,2035,-12,-9,-3
73719482,-56,45,2035,-11,-7,-3
73739471,-57,40,2036,-11,-7,-3
73759460,-57,41,2036,-10,-9,-3
73779449,-56,40,2034,-11,-7,-3
73799438,-58,44,2037,-12,-7,-2
73819427,-56,45,2038,-10,-8,-2
73839416,-57,40,2034,-11,-7,-2
73859405,-59,40,2034,-11,-7,-3
73879394,-58,43,2034,-11,-8,-2
73899383,-55,39,2038,-11,-7,-3
73919372,-53,38,2037,-13,-7,-3
73939361,-55,42,2036,-11,-8,-2
73959350,-53,42,2037,-10,-7,-3
73979339,-56,42,2037,-11,-8,-2
73999328,-58,42,2035,-11,-8,-2
74019317,-53,39,2033,-10,-8,-2
74039306,-56,41,2036,-10,-9,-2
74059295,-55,45,2034,-11,-9,-2
74079284,-56,39,2032,-9,-7,-3
74099273,-57,40,2034,-10,-7,-3
74119262,-55,43,2034,-12,-7,-2
74139251,-53,46,2035,-11,-7,-2
74159240,-55,41,2036,-10,-8,-3
74179229,-58,41,2036,-12,-8,-3
74199218,-58,43,2032,-11,-6,-3
74219207,-57,40,2031,-12,-8,-3
74239196,-55,43,2035,-12,-7,-3
74259185,-54,45,2034,-11,-6,-3
74279174,-54,42,2037,-11,-8,-3
74299163,-57,40,2037,-11,-8,-2
74319152,-58,42,2038,-11,-8,-2
74339141,-57,44,2034,-10,-8,-2
74359130,-56,40,2033,-10,-8,-3
74379119,-55,42,2038,-11,-8,-3
74399108,-56,43,2036,-12,-8,-3
74419097,-56,40,2035,-10,-8,-3
74439086,-56,39,2036,-11,-8,-3
74459075,-55,44,2037,-11,-8,-3
74479064,-55,45,2040,-10,-7,-3
74499053,-53,41,2035,-10,-9,-2
74519042,-56,43,2029,-11,-7,-2
74539031,-56,45,2037,-11,-8,-2
74559020,-57,42,2041,-11,-8,-2
74579010,-55,42,2032,-10,-6,-2
74598999,-58,38,2033,-10,-7,-2
74618988,-55,43,2033,-12,-8,-2
74638977,-56,45,2046,-10,-5,-2
74658966,-59,44,2035,-10,-6,-2
74678955,-53,43,2031,-13,-11,-2
74698944,-319,-147,2051,-3,-15,-3
74718933,-916,-886,2162,700,-111,-17
74738922,1315,64,1932,810,54,-1161
74758911,-207,1271,1929,647,304,-1186
74778900,-155,237,2142,256,63,847
74798889,-160,191,2020,12,2,423
74818878,-199,309,2034,-220,527,491
74838867,-886,-325,2125,-1083,1803,1023
74858856,-1226,-688,2305,-2035,3020,689
74878845,-1088,-449,2476,-1971,4493,876
74898834,-875,-741,3013,-2225,5537,1993
74918823,-1077,-446,2118,-2614,5704,2924
74938812,-1335,563,650,-406,6267,5886
74958801,-2536,1212,-25,173,7066,9470
74978790,-2883,364,608,-1747,8142,5735
74998779,-2272,-24,805,-2174,8928,3758
75018768,-2266,359,208,-1941,8312,3665
75038757,-2622,482,-671,-2054,8290,3861
75058746,-2495,360,-196,-2230,8948,4080
75078735,-1878,-8,1137,-1043,7904,2991
75098724,-1767,345,771,1105,5723,1272
75118713,-1589,674,-702,4581,3856,803
75138702,-1292,736,-2199,5986,2405,873
75158691,-1520,544,-1091,938,2095,444
75178680,-1656,776,-311,-248,1381,-338
75198669,-1517,937,-1262,531,1336,-964
75218658,-1622,433,-1311,-2131,1661,-449
75238647,-1276,503,-1139,-1564,1634,1263
75258636,-1113,579,-672,668,1071,990
75278625,-1418,764,-1688,1852,743,270
75298614,-1563,720,-2122,1534,1606,582
75318603,-1209,729,-1122,953,1316,612
75338592,-1151,574,-839,2235,773,352
75358581,-1401,37,-1587,4724,1329,-539
75378570,-961,706,-2507,1047,636,155
75398559,-1110,757,-2071,684,1132,401
75418548,-1145,569,-1490,911,1384,446
75438537,-1208,559,-1898,154,758,645
75458526,-1222,728,-2150,-694,256,782
75478515,-1122,1063,-1540,-2201,1,1120
75498504,-696,986,-1230,-1339,142,1610
75518493,-703,948,-1253,784,177,927
75538482,-739,981,-1316,2338,765,647
75558471,-534,437,-535,3387,955,515
75578460,-836,689,-1284,3371,-608,-363
75598449,-1192,721,-1560,2880,-748,113
75618438,-1136,185,-1015,1750,-596,722
75638427,-1627,133,-1271,1639,-1285,290
75658416,-1384,551,-1536,3661,-3887,-549
75678405,-1083,203,-2627,2718,-2101,833
75698394,-989,313,-2009,806,-69,1189
75718383,-959,491,-1557,154,191,1588
75738372,-928,456,-1473,-899,-112,1965
75758361,-976,490,-1852,-800,-1470,2073
75778350,-967,619,-1892,283,-2222,2335
75798339,-930,879,-1384,1186,-2137,2513
75818328,-1097,794,-1038,1700,-1817,2675
75838317,-1171,736,-1237,1367,-1549,2718
75858306,-1356,570,-1301,1402,-2180,2915
75878295,-1318,680,-1206,2601,-3145,3237
75898284,-1729,341,-696,2842,-3563,3517
75918273,-2258,15,-963,1637,-3550,2924
75938262,-2281,226,-1200,406,-2855,1684
75958251,-2383,618,-1039,-198,-2511,908
75978240,-2155,515,-668,8,-3118,1091
75998229,-1837,441,-575,759,-4905,897
76018218,-1759,484,-771,1595,-6509,758
76038208,-1754,905,-832,2047,-6377,883
76058197,-1400,1173,-414,2054,-4911,1764
76078186,-1214,1215,-81,2044,-3745,2951
76098175,-1803,1015,292,2046,-2777,3449
76118164,-2158,1016,316,1559,-1805,2863
76138153,-1636,1276,104,1460,-1332,2261
76158142,-1387,1510,252,1794,-883,1776
76178131,-2106,1694,971,1617,-291,1640
76198120,-2780,1612,1251,355,394,1545
76218109,-2141,1556,194,-671,711,673
76238098,-1241,1716,-131,-673,817,348
76258087,-1360,1459,-276,-258,647,506
76278076,-1565,1475,-122,498,21,181
76298065,-1591,1701,217,742,-317,-47
76318054,-1210,1907,108,386,-440,0
76338043,-1234,1812,-158,505,-939,470
76358032,-1750,1664,52,848,-1232,599
76378021,-1814,1738,117,923,-1485,148
76398010,-1713,1946,-31,1280,-2292,-348
76417999,-1733,2156,233,1315,-2423,-564
76437988,-1989,2040,540,713,-2092,-577
76457977,-2210,1890,403,194,-2305,-1046
76477966,-2216,1854,156,-144,-2588,-1757
76497955,-2109,2254,-358,-133,-2800,-2346
76517944,-1795,2267,-296,86,-1924,-2098
76537933,-1962,2130,416,55,-1007,-1940
76557922,-2305,1900,686,-277,-998,-1996
76577911,-2474,1705,419,-413,-1721,-2321
76597900,-2352,1850,-203,-228,-2199,-2556
76617889,-2333,1606,-154,-51,-1394,-2453
76637878,-2379,1519,336,127,-792,-2563
76657867,-2306,1489,621,31,-1064,-2698
76677856,-2130,1557,365,-28,-1603,-2540
76697845,-2033,1254,299,40,-1391,-1946
76717834,-2092,1033,678,111,-1027,-1748
76737823,-2014,1103,1065,291,-1287,-1716
76757812,-1926,1080,1143,373,-1783,-1450
76777801,-1819,861,907,76,-1559,-1177
76797790,-1848,623,939,-339,-645,-1149
76817779,-1860,550,1202,-503,-175,-1270
76837768,-1824,563,1319,-557,-143,-1427
76857757,-1403,610,1290,-566,-99,-1378
76877746,-1287,416,1182,-886,417,-1015
76897735,-1411,184,1216,-1043,1006,-929
76917724,-1446,12,1412,-948,1167,-966
76937713,-1282,-69,1510,-930,1155,-989
76957702,-1234,-80,1399,-782,1064,-829
76977691,-1185,-194,1476,-221,967,-442
76997680,-1287,-222,1744,-103,1276,-296
77017669,-1454,-385,1581,-759,1901,-254
77037658,-1362,-339,1395,-1136,2320,-517
77057647,-1343,-166,1486,-801,2008,-556
77077636,-1381,-185,1279,-483,1507,-209
77097625,-1500,-391,1058,-544,1657,-22
77117614,-1469,-405,1111,-719,1951,-222
77137603,-1312,-300,1087,-842,1782,-245
77157592,-1150,-196,1002,-759,1361,-130
77177581,-1314,-355,736,-773,1187,176
77197570,-1444,-584,442,-679,1075,205
77217559,-1283,-585,248,-453,996,-69
77237548,-1095,-498,438,-505,1395,-202
77257537,-1015,-425,607,-898,1618,60
77277526,-950,-404,234,-1227,1541,427
77297515,-973,-347,87,-1241,1766,684
77317504,-1174,-300,60,-1146,1903,905
77337493,-1416,-222,-86,-1068,2031,1036
77357482,-1595,-272,98,-1096,2336,1109
77377471,-1575,-195,2,-1200,2128,867
77397460,-1429,141,-289,-1243,1918,698
77417449,-1660,318,-450,-1319,2022,881
77437438,-1985,268,-524,-1149,1923,1123
77457427,-2281,85,-599,-765,1472,974
77477416,-2214,36,-709,-688,1320,500
77497406,-2088,113,-892,-956,1519,124
77517395,-2078,119,-1066,-1002,1545,-9
77537384,-2284,-3,-1063,-859,1421,-51
77557373,-2385,-213,-1075,-738,1209,-281
77577362,-2063,-88,-1352,-696,1013,-742
77597351,-1852,-87,-1447,-891,1198,-828
77617340,-1843,-204,-1384,-1048,953,-750
77637329,-1858,-160,-1252,-1113,489,-733
77657318,-1711,-195,-1260,-1269,506,-680
77677307,-1678,-206,-1250,-1419,942,-723
77697296,-1611,-212,-1166,-1440,1227,-671
77717285,-1475,-162,-1102,-1335,929,-577
77737274,-1475,-159,-1062,-1222,327,-420
77757263,-1586,-212,-1187,-1323,52,-388
77777252,-1469,-135,-1478,-1495,233,-540
77797241,-1276,-86,-1632,-1485,635,-545
77817230,-1190,-40,-1562,-1160,651,-479
77837219,-1149,128,-1200,-897,307,-396
77857208,-1291,148,-926,-986,-343,-319
77877197,-1347,235,-1188,-1262,-883,-475
77897186,-1246,405,-1630,-1527,-450,-640
77917175,-1154,537,-1700,-1500,208,-608
77937164,-1248,829,-1444,-1290,195,-631
77957153,-1505,1145,-1250,-1262,-378,-675
77977142,-1725,1193,-1569,-1555,-951,-895
77997131,-1581,1412,-2037,-1862,-595,-1291
78017120,-1407,1408,-2173,-1851,281,-1357
78037109,-1523,1358,-1917,-1379,407,-1208
78057098,-2052,1132,-1378,-1136,93,-1059
78077087,-2298,892,-1107,-1241,-568,-1272
78097076,-2124,826,-1357,-1587,-699,-1697
78117065,-1991,677,-1631,-1793,445,-2019
78137054,-1815,569,-1582,-1524,1470,-2286
78157043,-1689,482,-1454,-925,1657,-2461
78177032,-1731,363,-1115,-534,1636,-2447
78197021,-1553,220,-982,-66,1401,-2508
78217010,-1302,186,-981,57,1412,-2559
78236999,-1208,190,-838,135,1749,-2425
78256988,-1120,-1,-702,5,1620,-2453
78276977,-1001,-36,-676,-106,959,-2544
78296966,-817,19,-742,-303,402,-2414
78316955,-733,-59,-866,-540,255,-2105
78336944,-708,-249,-989,-851,362,-1902
78356933,-662,-386,-1137,-1051,613,-1844
78376922,-589,-430,-1233,-1278,931,-1911
78396911,-567,-312,-1320,-1422,1147,-1728
78416900,-512,-262,-1348,-1199,1448,-1511
78436889,-477,-224,-1490,-1239,1529,-1191
78456878,-419,-314,-1729,-1496,1900,-1124
78476867,-321,-345,-1799,-1647,2583,-1185
78496856,-212,-154,-1820,-1794,2942,-1268
78516845,-42,80,-2029,-1988,2564,-1195
78536834,39,168,-2480,-2349,1845,-813
78556823,12,100,-2857,-2702,1394,-417
78576812,-247,80,-3219,-2586,730,-43
78596801,-620,19,-3343,-1876,196,214
78616790,-922,21,-3234,-1240,31,239
78636779,-1061,172,-3034,-738,16,92
78656768,-1045,163,-2698,-373,35,32
78676757,-1076,193,-2371,-271,-38,51
78696746,-1046,183,-2043,-54,-239,149
78716735,-1002,208,-1794,164,-536,204
78736724,-976,328,-1579,284,-696,145
78756713,-960,421,-1385,181,-743,105
78776702,-946,506,-1258,-19,-914,94
78796691,-961,561,-1209,-82,-1221,124
78816680,-924,641,-1240,-91,-1391,72
78836669,-890,738,-1083,-110,-1060,-23
78856658,-889,765,-826,-253,-636,-123
78876647,-882,834,-670,-470,-647,-352
78896636,-854,1063,-721,-740,-951,-660
78916625,-788,1354,-828,-1195,-1078,-741
78936614,-669,1583,-875,-1710,-1005,-739
78956604,-583,1761,-873,-2349,-897,-626
78976593,-559,2001,-1067,-2918,-1069,-563
78996582,-598,2368,-1312,-3308,-1144,-715
79016571,-588,2754,-1423,-3645,-831,-997
79036560,-518,3049,-1666,-4278,-307,-1159
79056549,-600,3103,-1960,-4964,86,-937
79076538,-772,3112,-2261,-5131,-44,-532
79096527,-961,2984,-2403,-4857,-175,-64
79116516,-1186,2638,-2351,-4281,-201,384
79136505,-1359,2086,-2169,-3508,-257,741
79156494,-1432,1514,-1886,-2777,-258,848
79176483,-1511,1038,-1637,-2245,-24,638
79196472,-1544,711,-1313,-1929,456,133
79216461,-1538,716,-1112,-1823,922,-504
79236450,-1501,731,-991,-1805,1339,-663
79256439,-1534,707,-938,-1691,1396,-641
79276428,-1515,707,-925,-1543,1276,-710
79296417,-1449,732,-944,-1559,1136,-942
79316406,-1343,918,-1009,-1707,1000,-1155
79336395,-1156,1181,-1276,-1876,862,-1038
79356384,-1031,1057,-1572,-1798,916,-379
79376373,-1099,968,-1682,-1354,937,333
79396362,-1304,1136,-1773,-780,754,959
79416351,-1650,1206,-1742,-344,688,1487
79436340,-2037,1445,-1907,46,581,1583
79456329,-2355,1935,-2059,102,440,1417
79476318,-2700,2105,-2127,473,205,1570
79496307,-2970,1867,-1929,1346,-197,1814
79516296,-2983,2023,-1929,2126,-978,1304
79536285,-2786,2294,-1813,2423,-1326,376
79556274,-2495,2663,-1910,2684,-1557,-465
79576263,-2291,2827,-1970,2909,-1149,-955
79596252,-1936,2798,-1684,3343,-404,-1335
79616241,-1658,2520,-1286,3817,-66,-1291
79636230,-1508,2194,-1001,4099,-260,-1105
79656219,-1296,2119,-873,4204,-820,-1007
79676208,-1171,2007,-739,4114,-1282,-941
79696197,-1050,2010,-746,3795,-1486,-1087
79716186,-904,1935,-587,3505,-1139,-1209
79736175,-747,1945,-491,3329,-1120,-1368
79756164,-331,2047,-368,2984,-1400,-1269
79776153,-244,1943,-308,2646,-1574,-844
79796142,-232,1777,-120,2174,-1343,-572
79816131,-109,1785,172,1506,-1182,-547
79836120,162,1844,32,772,-1383,-633
79856109,426,1869,-210,-88,-983,-617
79876098,663,1722,-141,-1110,8,-530
79896087,658,1723,-415,-1877,518,-665
79916076,753,1925,-736,-2580,1021,-486
79936065,930,2183,-1064,-2982,1340,-33
79956054,1103,2371,-1339,-3338,1825,477
79976043,1056,2641,-1640,-3752,2280,1205
79996032,694,3096,-1887,-4061,2310,2100
80016021,96,3537,-2071,-4082,1710,3028
80036010,-393,3745,-2224,-3750,710,3743
80055999,-637,3649,-2354,-3269,236,4118
80075988,-867,3152,-2355,-2954,648,4285
80095977,-1123,2472,-2166,-2674,1425,4067
80115966,-1293,1792,-1808,-2263,2108,3519
80135955,-1437,1381,-1447,-1802,2447,2789
80155944,-1437,1285,-1204,-1395,2515,1965
80175933,-1393,1434,-1078,-1299,2581,1151
80195922,-1383,1637,-1059,-1536,2673,470
80215911,-1294,1904,-1204,-1868,2606,-76
80235900,-1136,2014,-1331,-2166,2485,-279
80255889,-1091,2096,-1551,-2414,2173,-363
80275878,-1113,2049,-1888,-2556,1876,-13
80295867,-1306,1576,-2233,-2355,1880,547
80315856,-1475,1390,-2292,-1675,1818,668
80335845,-1755,1264,-2449,-680,1224,468
80355834,-2050,1388,-2472,309,720,205
80375823,-2224,1772,-2441,1184,332,-266
80395812,-2235,2291,-2336,2022,-36,-565
80415802,-2314,2657,-2104,2599,-405,-920
80435791,-2274,2919,-1995,2882,-1058,-1182
80455780,-2195,3007,-2129,2422,-1714,-1648
80475769,-2012,3275,-2536,1924,-2301,-2375
80495758,-1607,3219,-2758,2018,-2611,-2836
80515747,-1326,3118,-2718,2453,-2682,-3123
80535736,-1006,2864,-2517,3046,-2754,-3012
80555725,-811,2758,-2347,3417,-2867,-2910
80575714,-597,2716,-2293,3758,-3081,-2629
80595703,-307,2689,-2293,4165,-3361,-2255
80615692,69,2710,-2322,4724,-3594,-1891
80635681,533,2777,-2360,5130,-3519,-1546
80655670,1188,2955,-2454,5228,-3211,-801
80675659,1646,3087,-2123,5366,-2870,284
80695648,1965,2821,-1396,5467,-2560,1235
80715637,2321,2183,-1282,4883,-2324,2077
80735626,2507,1673,-1582,4025,-1706,2728
80755615,2442,1325,-1701,3598,-564,3279
80775604,2034,1329,-1367,3796,654,4184
80795593,973,1382,-1010,3273,1859,4429
80815582,152,1328,-898,2595,2533,4327
80835571,-755,1180,-909,1789,2370,4070
80855560,-1846,823,-1176,730,1714,3325
80875549,-4018,898,-1715,-571,1371,1761
80895538,-6920,1450,-2047,-2282,2298,-2460
80915527,-4575,2808,-1717,-1396,-553,-7656
80935516,-1932,2737,-990,-2338,-2535,-8682
80955505,-670,1249,-2620,-3524,-5014,-5275
80975494,-1342,-257,-3714,-2076,-6530,-1624
80995483,-2094,-182,-533,-42,-3830,-1581
81015472,-971,457,353,-754,-2889,-2226
81035461,-644,453,-167,-1535,-2633,-2002
81055450,-594,303,-161,-1399,-1050,-1830
81075439,-831,415,80,-1478,844,-1843
81095428,-856,345,368,-1504,1228,-1230
81115417,-916,623,-424,-1342,956,-474
81135406,-1227,735,-1009,-586,1623,396
81155395,-1619,995,-1277,202,2306,1445
81175384,-1652,1212,-871,112,3050,2579
81195373,-2532,1389,-371,-109,2703,3617
81215362,-2599,1327,-499,1016,738,3738
81235351,-2523,777,-881,1333,-375,3242
81255340,-2671,13,-1656,668,-748,2269
81275329,-2069,-461,-3169,1082,-1399,738
81295318,-1537,-258,-2950,2162,-664,-403
81315307,-2064,694,-1461,2469,594,-925
81335296,-2147,974,-1847,1999,859,-1586
81355285,-2037,973,-2489,1485,1668,-2295
81375274,-2278,885,-1784,1368,3611,-3228
81395263,-2278,885,-1784,814,4470,-3970
81415252,-1829,531,-1667,814,4470,-3970
81435241,-1066,-98,-2494,170,4209,-3790
81455230,-1839,-688,-3076,94,4427,-3832
81475219,-2255,-150,-2301,657,6018,-5333
81495208,-2697,-178,-1283,1575,5711,-5866
81515197,-2383,-713,-1807,1409,4140,-6179
81535186,-2012,-1156,-2791,1278,3115,-6413
81555175,-1129,-1439,-3322,1428,2135,-5995
81575164,144,-1217,-3377,2066,192,-4657
81595153,1295,-341,-2509,2783,-1436,-3158
81615142,1765,336,-1882,3004,-2112,-1991
81635131,1985,1062,-910,3049,-2022,-1129
81655120,2093,1877,401,2581,-1926,-118
81675109,2166,2208,1177,1464,-2308,1314
81695098,1859,1812,604,683,-1261,1892
81715087,2085,2372,744,803,1105,1720
81735076,1916,2962,303,611,2129,3298
81755065,315,2789,329,-254,2218,4967
81775054,-1367,2681,659,-2153,440,5192
81795043,-1995,2925,104,-5226,-1802,4362
81815032,-1903,3704,-1141,-8424,-3007,2957
81835021,-1165,4864,-2859,-10495,-4686,2694
81855010,-473,4620,-5890,-10356,-6570,5199
81875000,-1003,1981,-9984,-6858,-5436,7672
81894989,-2728,684,-9417,-1425,3394,5682
81914978,-3519,271,-6352,1777,8170,3033
81934967,-3173,-576,-5591,3109,5772,1620
81954956,-2514,-978,-5673,4152,4432,-197
81974945,-2191,-45,-4110,5447,4557,-1787
81994934,-3386,1553,-229,5483,4621,-2258
82014923,-2768,1838,1443,2889,2380,-2453
82034912,-1595,1643,570,-317,-1261,-2262
82054901,-1425,984,-164,-2448,-2964,-1329
82074890,-1629,357,-765,-3760,-4732,-891
82094879,-1419,207,-1801,-4391,-5679,-980
82114868,-839,-423,-3235,-3686,-4523,-1268
82134857,-424,-827,-4130,-1514,-1312,-2425
82154846,-841,290,-2723,1397,2191,-3011
82174835,-1773,646,-1277,2678,3667,-3268
82194824,-2057,1265,-857,1817,3682,-4530
82214813,-1877,1665,-878,884,3449,-4915
82234802,-523,2454,-606,-119,2949,-4814
82254791,595,2110,-1278,-1807,1887,-2989
82274780,1348,1613,-3759,-2001,-833,263
82294769,1307,1393,-4437,164,-2579,3323
82314758,1128,1069,-4902,1061,-671,4140
82334747,427,1058,-3881,2419,1586,3641
82354736,-717,1068,-1986,3519,744,3875
82374725,-1837,1566,734,2672,-2253,3743
82394714,-2456,1866,1125,-542,-7584,4131
82414703,-3751,1103,-1364,-3104,-10900,3606
82434692,-2047,663,-3031,-2822,-8522,366
82454681,785,164,-3568,-1771,-2767,-2202
82474670,1408,245,-3042,558,333,-1305
82494659,504,907,-1644,2745,2127,-467
82514648,-690,1125,-744,2508,3510,-1069
82534637,-1393,927,-1341,1520,3218,-1984
82554626,-1381,1090,-2636,772,3950,-3372
82574615,-966,1483,-2665,1597,5306,-3697
82594604,-109,1510,-2488,2060,5242,-2575
82614593,660,1696,-3256,1934,4095,130
82634582,-220,968,-2907,2218,3659,2731
82654571,-347,275,-2582,1804,3431,3133
82674560,-174,155,-2078,1198,3558,2751
82694549,-289,-77,-863,539,3282,2443
82714538,-772,-830,-1742,-686,2085,2149
82734527,-1282,-1819,-3386,-1051,1205,1366
82754516,-1651,-1872,-3585,-34,804,259
82774505,-2521,-1713,-2639,822,30,-512
82794494,-2719,-2100,-2315,903,-1636,-1142
82814483,-1085,-1701,-2200,1253,-3105,-1760
82834472,1271,-554,-448,2037,-3214,-1766
82854461,2193,1739,3054,2042,-2336,-1442
82874450,2121,3224,4863,-624,-1971,-561
82894439,2351,3783,3627,-4947,-2401,1006
82914428,2970,4481,533,-8734,-3181,4726
82934417,383,3919,-1459,-10228,-4336,10383
82954406,-4413,1931,-2424,-9421,-5330,12877
82974395,-6726,936,-3885,-7870,-5581,9541
82994384,-4544,2959,-2935,-6458,-4851,4589
83014373,-3944,2352,-2733,-5582,-3334,2251
83034362,-3999,2012,-2436,-2905,-2086,-390
83054351,-3999,2389,-1856,-863,-549,-3277
83074340,-3674,2482,-1718,89,1337,-6187
83094329,-2934,2186,-1528,860,3112,-8300
83114318,-2381,2036,-1774,1478,3487,-8581
83134307,-2284,1996,-2348,2370,3093,-7737
83154296,-2084,1693,-3126,3345,1773,-6454
83174285,-1359,1192,-3790,4499,540,-5392
83194274,-894,1049,-3451,5342,829,-4343
83214263,-735,1286,-3178,5463,958,-2868
83234252,-480,1369,-3573,5093,223,-1426
83254241,-451,1533,-3346,5075,-145,-277
83274230,-153,1720,-1848,5259,160,661
83294219,-190,1879,-549,4518,-57,1900
83314208,-487,1947,-124,3093,-1290,2989
83334197,-833,1342,-1439,1786,-2532,2977
83354187,-1044,448,-2333,2070,-1539,1971
83374176,-1235,109,-1792,2736,316,751
83394165,-1707,-226,-1126,2733,1057,54
83414154,-1472,-626,-986,2390,285,-523
83434143,-883,-452,-1348,1602,-83,-919
83454132,-681,-582,-1284,1450,397,-207
83474121,-964,-642,-803,1474,259,569
83494110,-1534,-278,-395,996,-518,939
83514099,-2066,-261,-320,86,-1126,789
83534088,-2603,-834,-2060,-971,-1245,-829
83554077,-2901,-88,-2740,-1263,1632,-3992
83574066,-2058,524,-1164,-1082,5268,-5143
83594055,-959,-20,-286,-1148,4602,-4080
83614044,-193,-555,-732,-1472,2063,-2751
83634033,213,-859,-1054,-1563,621,-1457
83654022,350,-1348,-1271,-1402,-297,197
83674011,-364,-1418,-780,-575,-801,1160
83694000,-1274,-1676,-382,-1129,-835,1276
83713989,-1417,-1577,-529,-1930,-2264,1503
83733978,-1493,-1250,-1084,-1994,-3440,1755
83753967,-1790,-847,-1202,-1705,-3417,2337
83773956,-2256,-506,-704,-1765,-2575,2442
83793945,-2460,-21,-344,-1981,-2346,1637
83813934,-2008,145,-950,-3826,-1538,1149
83833923,-1714,-31,-1596,-4989,456,830
83853912,-1416,-22,-1301,-4096,1180,579
83873901,-1556,181,-1146,-3360,394,1249
83893890,-1343,78,-1598,-3108,-288,1703
83913879,-1160,-69,-2222,-2631,400,1834
83933868,-1314,60,-2140,-1909,1422,1980
83953857,-1641,157,-1746,-1273,1506,1624
83973846,-1588,1058,-1576,-951,663,1491
83993835,-2185,1108,-1462,-1250,-670,2095
84013824,-2095,1066,-1393,-1801,-1868,1763
84033813,-1378,1291,-1543,-2240,-2030,1088
84053802,-1281,1130,-1640,-2235,-1360,1067
84073791,-1156,1369,-1337,-1639,-955,1062
84093780,-1355,1411,-994,-1116,-1008,1358
84113769,-1964,1370,-756,-913,-1115,1306
84133758,-2074,1716,-1078,-571,-558,479
84153747,-1621,1673,-472,-1045,120,75
84173736,-1535,1818,-217,-1849,-754,197
84193725,-2160,2201,293,-2471,-1660,460
84213714,-2784,2171,10,-3661,-3078,-64
84233703,-2753,1773,-856,-3947,-3185,-1658
84253692,-2398,1565,-796,-3725,-2061,-2990
84273681,-2599,849,-470,-3278,-2468,-2893
84293670,-3095,-341,-969,-2921,-4572,-3028
84313659,-3024,-634,-1431,-2618,-5767,-4385
84333648,-2172,-181,-1464,-1482,-5240,-4899
84353637,-1022,-281,-740,466,-3616,-4323
84373626,-489,-371,57,1530,-2341,-3884
84393615,-562,-152,613,1088,-822,-3841
84413604,-604,297,1133,-20,1275,-3880
84433593,-250,872,2010,-578,1839,-3531
84453582,-514,1419,1368,-1330,388,-1594
84473571,-1425,562,1014,-299,-86,578
84493560,-1660,-7,1073,407,-1259,556
84513549,-1635,353,1450,161,-2660,65
84533538,-1846,516,1527,-1227,-2834,-373
84553527,-2108,569,1598,-790,-1510,-118
84573516,-2217,485,1915,-29,327,390
84593505,-1721,213,1804,-332,-200,280
84613494,-1305,91,1687,-323,-1587,299
84633483,-1664,-155,1375,-1153,-1967,486
84653472,-2122,-624,1685,-1323,-1176,160
84673461,-2249,-634,2028,-594,-1590,-431
84693450,-1514,-619,1451,-226,-2221,-844
84713439,-810,-422,1755,-16,-1929,-798
84733428,-773,-235,1825,-804,-2107,-436
84753417,-1025,-222,1598,-1825,-1487,-188
84773406,-1104,-467,1509,-1410,-302,35
84793395,-1281,-731,1601,-445,265,266
84813385,-1319,-704,1603,31,92,258
84833374,-1156,-532,1615,196,-174,52
84853363,-993,-437,1669,205,-86,30
84873352,-919,-441,1655,75,203,146
84893341,-974,-509,1666,139,466,285
84913330,-1090,-465,1643,118,716,387
84933319,-1245,-456,1680,78,822,355
84953308,-1268,-358,1585,30,429,137
84973297,-1329,-352,1506,-4,323,91
84993286,-1380,-375,1539,-116,354,8
85013275,-1243,-391,1553,-107,70,-145
85033264,-1291,-425,1522,27,-509,-240
85053253,-1353,-489,1635,148,-651,-254
85073242,-1203,-447,1630,-167,-381,-248
85093231,-1077,-523,1562,-173,-416,-246
85113220,-1059,-435,1494,-513,-273,-260
85133209,-1060,-422,1604,-624,-291,-362
85153198,-1253,-573,1944,-59,-15,-146
85173187,-1157,-608,1557,-7,-70,-191
85193176,-1066,-577,1571,47,-14,-148
85213165,-1118,-569,1574,68,65,-19
85233154,-1110,-517,1590,-65,337,77
85253143,-1211,-567,1661,-89,314,81
85273132,-1224,-546,1570,-232,137,1
85293121,-1214,-582,1565,-99,-16,-111
85313110,-1211,-608,1581,41,-290,-234
85333099,-1128,-637,1581,97,-377,-252
85353088,-1024,-566,1641,196,-270,-127
85373077,-1062,-479,1664,145,-102,3
85393066,-1110,-476,1702,30,103,24
85413055,-1177,-498,1626,-11,87,-1
85433044,-1206,-543,1615,-64,-10,5
85453033,-1134,-558,1603,-21,-104,-38
85473022,-1083,-547,1633,46,-130,-34
85493011,-1092,-550,1637,-7,-56,9
85513000,-1123,-551,1617,-59,9,62
85532989,-1138,-560,1607,31,-23,37
85552978,-1148,-582,1639,72,-88,19
85572967,-1104,-527,1651,56,-96,-27
85592956,-1088,-502,1657,35,-66,-25
85612945,-1104,-526,1631,15,-23,-5
85632934,-1121,-547,1634,38,-48,2
85652923,-1136,-525,1653,38,-84,1
85672912,-1115,-528,1650,23,-65,-5
85692901,-1078,-535,1645,62,-63,-27
85712890,-1067,-532,1661,125,-38,-39
85732879,-1113,-552,1666,113,-24,-14
85752868,-1103,-531,1643,117,-39,6
85772857,-1108,-498,1638,95,-18,63
85792846,-1113,-504,1650,27,-10,109
85812835,-1113,-502,1663,29,-55,63
85832824,-1072,-498,1673,44,-55,7
85852813,-1064,-515,1660,38,-2,17
85872802,-1094,-531,1628,56,64,68
85892791,-1111,-492,1662,-63,78,106
85912780,-1125,-473,1659,-41,38,86
85932769,-1145,-482,1647,-54,-10,57
85952758,-1135,-487,1644,-40,-48,13
85972747,-1119,-475,1671,-27,-74,-46
85992736,-1097,-489,1677,-46,-91,-79
86012725,-1075,-506,1680,-36,-67,-72
86032714,-1087,-517,1654,5,-12,-28
86052703,-1092,-530,1651,67,12,-3
86072692,-1075,-536,1653,131,19,-12
86092681,-1088,-496,1647,172,31,-10
86112670,-1132,-459,1635,146,35,19
86132659,-1156,-478,1640,70,-29,50
86152648,-1142,-464,1654,-91,-235,19
86172637,-1090,-468,1658,-58,-249,16
86192626,-1050,-499,1708,-19,-222,28
86212615,-1043,-528,1701,18,-115,63
86232604,-1048,-509,1688,45,6,71
86252593,-1067,-457,1698,156,27,65
86272583,-1090,-411,1693,179,11,44
86292572,-1101,-360,1693,109,-3,6
86312561,-1103,-372,1699,-32,-14,-12
86332550,-1083,-424,1682,-149,-36,-2
86352539,-1068,-484,1672,-136,-27,53
86372528,-1062,-525,1674,-122,26,69
86392517,-1064,-539,1673,-73,52,69
86412506,-1088,-527,1659,23,51,92
86432495,-1100,-477,1671,123,38,63
86452484,-1091,-449,1680,143,12,19
86472473,-1083,-418,1684,106,1,-13
86492462,-1099,-406,1685,15,33,-21
86512451,-1108,-430,1682,-40,49,-46
86532440,-1087,-451,1696,-42,41,-103
86552429,-1082,-468,1688,-18,71,-108
86572418,-1077,-468,1669,88,297,17
86592407,-1106,-463,1652,233,497,145
86612396,-1160,-468,1647,329,861,184
86632385,-1187,-379,1738,299,1599,153
86652374,-1205,-317,1673,-182,2245,174
86672363,-1285,-226,1633,-865,2686,378
86692352,-1339,-294,1723,-1118,2734,661
86712341,-1477,-505,1312,-980,2426,849
86732330,-1754,-492,1255,-927,2808,860
86752319,-1825,-411,1301,-835,2704,604
86772308,-1935,-307,1031,-1041,2562,362
86792297,-2112,-180,906,-1176,2724,450
86812286,-2253,-284,745,-1188,3263,696
86832275,-2296,-436,862,-986,3935,769
86852264,-2260,-288,1080,-1030,3728,727
86872253,-2142,-328,607,-1378,3220,775
86892242,-1921,-563,-134,-1209,3533,870
86912231,-1852,-746,-556,-27,3847,812
86932220,-1961,-873,-495,1131,3620,804
86952209,-2005,-893,-431,1601,2713,1022
86972198,-2031,-985,-556,1956,1333,1051
86992187,-1932,-845,-434,1931,24,786
87012176,-1794,-505,-606,1721,-1099,643
87032165,-1515,-548,-564,1594,-1976,894
87052154,-1278,-292,-554,1811,-3276,1272
87072143,-1170,58,-319,2470,-4226,1968
87092132,-1039,361,-304,2729,-4532,2460
87112121,-1218,306,-390,3166,-3937,2862
87132110,-1270,704,24,3296,-2574,3011
87152099,-1418,1034,615,3263,-2345,3560
87172088,-1868,1029,765,3339,-3156,3670
87192077,-2053,1373,818,3260,-3004,2819
87212066,-1887,1668,1218,2441,-1627,1999
87232055,-1863,1654,1559,1121,-912,1677
87252044,-1848,1364,1135,149,-1427,1614
87272033,-2041,1395,884,-136,-1779,1085
87292022,-1404,1737,892,-231,-1295,193
87312011,-1350,1684,1106,-416,-337,-28
87332000,-1685,1486,1441,-883,94,-36
87351989,-1206,1145,882,-1560,-163,-276
87371978,-851,949,193,-1319,-202,-266
87391967,-725,971,66,-426,743,-8
87411956,-1176,981,470,222,1979,198
87431945,-1827,1031,920,391,2299,140
87451934,-2186,1080,1139,140,1751,20
87471923,-2068,1106,872,-267,1048,-220
87491912,-1617,1152,527,-421,797,-342
87511901,-1730,1098,861,-332,937,-196
87531890,-1838,1242,967,-193,913,-385
87551879,-1968,1169,881,-382,579,-629
87571868,-1934,1207,734,-873,414,-969
87591857,-1834,1261,624,-821,513,-1057
87611846,-1866,1286,663,-733,663,-1005
87631835,-2068,1236,723,-735,606,-917
87651824,-2170,1171,442,-531,167,-1097
87671813,-2076,1207,349,-406,87,-1490
87691802,-2043,1108,564,-362,655,-1624
87711791,-2014,951,516,-452,1273,-1773
87731781,-1730,984,647,-382,1554,-1661
87751770,-1784,767,620,-808,1869,-1334
87771759,-1831,596,355,-1060,1983,-1266
87791748,-1964,499,-88,-832,2062,-1246
87811737,-2204,334,-481,-472,3039,-1432
87831726,-2093,364,-449,-333,4834,-1744
87851715,-1910,307,-297,-839,6395,-1702
87871704,-1701,83,-685,-1373,6716,-1583
87891693,-1367,-262,-1424,-1164,5797,-1603
87911682,-1200,-482,-2117,-525,4882,-1602
87931671,-1360,-570,-2135,213,4741,-1672
87951660,-1687,-834,-1602,894,4502,-1812
87971649,-1970,-905,-1423,1111,3682,-2419
87991638,-1596,-751,-1828,719,3319,-3218
88011627,-894,-715,-2205,423,3553,-3354
88031616,-823,-896,-1859,572,4214,-2958
88051605,-443,-757,-1040,556,4579,-3045
88071594,289,-464,-561,48,3793,-2686
88091583,614,-260,-717,-585,2378,-1435
88111572,575,-193,-749,-674,945,45
88131561,46,-197,-230,-691,-615,1478
88151550,-788,-315,-565,-1339,-2342,2277
88171539,-871,-200,-1474,-1889,-2964,2156
88191528,-1219,-88,-1745,-2156,-2439,2284
88211517,-1679,-131,-2263,-2089,-2017,2356
88231506,-1571,122,-2256,-1633,-1359,2399
88251495,-2041,66,-1934,-1249,-816,2589
88271484,-2281,18,-2317,-1228,-393,2140
88291473,-2047,190,-2233,-1167,139,1351
88311462,-1746,276,-2172,-814,146,926
88331451,-1333,417,-1927,-751,112,838
88351440,-1306,325,-1913,-741,-201,1082
88371429,-1404,215,-2069,-618,13,1015
88391418,-1029,309,-1893,-336,301,754
88411407,-956,351,-1708,-107,257,746
88431396,-800,247,-1708,30,-156,695
88451385,-713,245,-1810,90,-579,653
88471374,-812,340,-1879,264,-861,853
88491363,-1337,369,-1659,210,-579,993
88511352,-1186,417,-1592,-153,-58,722
88531341,-1114,489,-1743,-295,-193,614
88551330,-1277,613,-1819,-372,-181,547
88571319,-1086,556,-1709,-490,-111,393
88591308,-1050,623,-1781,-576,-156,271
88611297,-1159,674,-1807,-477,-84,274
88631286,-1113,673,-1789,-359,18,298
88651275,-1052,694,-1492,-317,-31,345
88671264,-959,613,-1422,-508,-343,470
88691253,-932,575,-1626,-578,-498,398
88711242,-795,628,-1542,-364,-486,287
88731231,-976,717,-1417,-218,-575,374
88751220,-1045,762,-1520,-280,-711,316
88771209,-971,830,-1709,-55,-1282,251
88791198,-1458,958,-1353,440,-1707,216
88811187,-1772,1101,-1342,714,-1712,-228
88831176,-1571,1729,-1331,1119,-1853,-1025
88851165,-1252,2247,-688,1320,-1410,-1582
88871154,-961,2136,-152,305,-21,-1248
88891143,-509,1728,-553,-1301,1346,-1124
88911132,-305,1599,-678,-1731,1901,-909
88931121,-427,1493,-609,-1503,1797,-380
88951110,-726,937,-188,-1087,1221,61
88971099,-1104,281,-440,-1244,124,392
88991088,-1215,-152,-1198,-1720,-710,109
89011077,-1205,-69,-1986,-2264,-365,-210
89031066,-1351,-258,-2693,-2866,1639,-322
89051055,-1732,-294,-2814,-4951,2758,-1083
89071044,-1354,-327,-3602,-4832,1751,-1492
89091033,-1046,130,-3797,-2553,487,-1235
89111022,-1340,972,-3345,-569,534,-1077
89131011,-1200,1276,-3636,925,1780,-722
89151000,-865,1368,-3270,1319,3819,361
89170989,-816,1381,-2570,1805,4576,1395
89190979,-915,1326,-1553,2028,3445,2026
89210968,-945,1385,-1159,1443,1334,2461
89230957,-397,1458,-992,1066,236,2240
89250946,-265,1415,-945,319,-597,2729
89270935,-350,934,-1580,-139,-1160,3081
89290924,-781,900,-1535,117,-1516,2405
89310913,-836,1289,-892,-112,-1285,1796
89330902,-572,1104,-1223,-484,-1446,1900
89350891,-444,960,-1774,-536,-1914,1269
89370880,-567,1087,-2014,-852,-1666,329
89390869,-540,1242,-2065,-922,-826,-267
89410858,-114,1640,-2326,-772,-21,-802
89430847,352,1756,-2609,260,90,-415
89450836,456,1757,-2390,1218,22,122
89470825,325,1564,-2329,1243,457,437
89490814,301,1245,-2374,1052,1105,503
89510803,301,1245,-2374,1235,1663,375
89530792,241,1164,-2553,1235,1663,375
89550781,225,1078,-2400,1616,2239,212
89570770,374,975,-1823,1882,2440,22
89590759,680,879,-1038,1482,2097,23
89610748,553,716,-1011,408,1434,406
89630737,563,678,-1289,-279,474,874
89650726,418,638,-1572,-465,-368,1316
89670715,255,548,-1786,-552,-372,1494
89690704,225,427,-1679,-486,-7,1475
89710693,163,422,-1426,-387,-201,1589
89730682,-43,417,-1608,-643,-582,1720
89750671,128,504,-2224,-849,-656,1563
89770660,343,473,-2637,-590,-136,1639
89790649,256,291,-2531,63,473,1996
89810638,79,132,-2062,563,559,2180
89830627,-42,52,-1717,595,-193,2105
89850616,-164,65,-1696,340,-1215,1891
89870605,-195,129,-1856,139,-2061,1625
89890594,-30,238,-2061,160,-2610,1415
89910583,72,338,-2204,389,-2596,1411
89930572,108,594,-2053,680,-2285,1545
89950561,35,769,-1859,641,-2099,1832
89970550,-236,725,-1894,335,-2186,2036
89990539,-503,661,-2081,218,-2528,2013
90010528,-564,707,-2233,297,-2621,1799
90030517,-418,1018,-2387,261,-2063,1589
90050506,-367,1288,-2452,159,-1461,1730
90070495,-526,1333,-2290,-95,-1353,1968
90090484,-859,1233,-1833,-320,-1896,2117
90110473,-983,1209,-1539,-502,-3031,1992
90130462,-989,1220,-1709,-764,-3336,1796
90150451,-871,1291,-1799,-857,-2445,1690
90170440,-720,1297,-1516,-466,-2076,1839
90190429,-754,1184,-1110,23,-2272,2156
90210418,-977,910,-918,191,-1941,2375
90230407,-1281,635,-833,256,-1371,2134
90250396,-1170,612,-872,349,-1317,1573
90270385,-923,601,-1066,413,-1170,1265
90290374,-782,555,-1140,632,-808,1183
90310363,-940,484,-1150,762,-501,1245
90330352,-1235,481,-1266,609,-331,1128
90350341,-1189,581,-1612,405,-415,832
90370330,-1046,700,-1971,593,-484,701
90390319,-1040,686,-1838,952,-202,756
90410308,-1033,602,-1575,1154,161,837
90430297,-957,552,-1554,1193,293,868
90450286,-879,599,-1652,1241,140,947
90470275,-952,616,-1837,1402,90,1056
90490264,-952,603,-1839,1662,340,1076
90510253,-961,568,-1769,1820,685,1036
90530242,-942,533,-1785,1772,993,980
90550231,-832,633,-2022,1559,1105,944
90570220,-845,808,-2443,1335,1050,1034
90590209,-872,1193,-2738,1308,974,1037
90610198,-770,1464,-2877,1284,825,839
90630187,-604,1289,-2830,831,486,525
90650177,-263,1295,-2621,301,-244,268
90670166,-66,1429,-2474,-92,-999,349
90690155,-239,1314,-2509,-253,-1311,587
90710144,-446,1135,-2400,-33,-1079,623
90730133,-520,1025,-1942,252,-629,496
90750122,-543,1006,-1639,255,-619,412
90770111,-526,962,-1499,111,-1030,485
90790100,-654,885,-1384,-35,-1516,600
90810089,-819,873,-1322,-208,-1800,528
90830078,-881,910,-1365,-423,-1859,305
90850067,-913,968,-1406,-613,-1767,58
90870056,-806,1014,-1431,-663,-1824,-112
90890045,-822,998,-1582,-644,-1912,-227
90910034,-873,1056,-1785,-486,-1701,-460
90930023,-879,1247,-1773,-231,-1296,-732
90950012,-879,1459,-1756,-135,-1168,-938
90970001,-815,1648,-1870,-304,-1154,-1123
90989990,-667,1801,-2136,-498,-1328,-1300
91009979,-562,1909,-2521,-465,-1506,-1402
91029968,-603,2016,-2599,134,-1279,-1420
91049957,-888,1893,-2206,839,-306,-1546
91069946,-1017,1686,-1743,880,474,-2093
91089935,-477,1796,-1556,357,536,-2578
91109924,93,1721,-1669,-174,16,-2321
91129913,61,1294,-1754,-415,-598,-1595
91149902,-608,667,-1455,-704,-360,-1116
91169891,-1117,349,-1051,-1097,-233,-1379
91189880,-966,401,-920,-1657,-360,-1807
91209869,-820,346,-1037,-2154,-749,-1655
91229858,-1023,172,-1216,-2348,-1343,-1235
91249847,-1399,22,-1040,-2205,-1427,-1047
91269836,-1402,-70,-808,-1906,-1282,-1196
91289825,-1253,-87,-739,-1588,-1050,-1321
91309814,-1273,-155,-830,-1395,-778,-1307
91329803,-1282,-157,-1018,-1157,-439,-1336
91349792,-1297,-119,-961,-684,-24,-1353
91369781,-1406,-64,-730,-385,262,-1276
91389770,-1500,21,-522,-398,307,-1149
91409759,-1762,84,-540,-566,177,-990
91429748,-2034,159,-863,-889,212,-893
91449737,-1906,303,-1116,-1006,264,-836
91469726,-1878,345,-1264,-732,116,-477
91489715,-2047,310,-1398,-244,173,-20
91509704,-2361,317,-1351,71,421,205
91529693,-2459,242,-1379,16,418,76
91549682,-2340,215,-1679,-258,334,-246
91569671,-1885,326,-2082,-416,199,-395
91589660,-1544,316,-2058,-250,425,-176
91609649,-1498,301,-1649,171,571,14
91629638,-1611,343,-1260,370,432,-80
91649627,-1340,541,-1160,212,-59,-237
91669616,-950,665,-976,-212,-197,229
91689605,-1077,387,-696,-695,-116,1084
91709594,-1146,352,-619,-711,-632,1440
91729583,-1346,454,-510,-635,-797,1500
91749572,-1653,501,-463,-543,-806,1296
91769561,-1713,612,-541,-306,-562,785
91789550,-1547,756,-577,-247,71,309
91809539,-1335,753,-603,-298,855,37
91829528,-1205,726,-631,-258,1538,-207
91849517,-1016,795,-636,-181,2110,-500
91869506,-840,843,-519,-238,2638,-831
91889495,-755,860,-606,-403,3094,-1305
91909484,-515,936,-587,-675,3746,-1833
91929473,-90,1210,-563,-1205,4144,-2217
91949462,512,1538,-910,-1934,3620,-2086
91969451,846,1741,-1461,-2525,3021,-1686
91989440,872,2022,-1518,-3231,3058,-1426
92009429,851,2527,-1518,-3953,2806,-1269
92029418,871,2847,-1644,-4767,2750,-1042
92049407,930,3077,-1789,-5487,3137,-1059
92069396,901,3145,-1935,-5735,3379,-1087
92089385,649,3000,-1866,-5629,3457,-930
92109375,346,2822,-1673,-5329,3198,-687
92129364,90,2665,-1804,-4982,2643,-464
92149353,-213,2368,-2066,-4552,2390,-175
92169342,-447,2099,-2173,-4001,2508,59
92189331,-572,1982,-2105,-3423,2620,214
92209320,-744,2009,-1995,-2878,2343,286
8343229,0,0,0,0,0,0
